{
  "resourceType": "Bundle",
  "id": "b3ad5efb-e3ac-417a-8bdd-01c2c84cdaba",
  "meta": {
    "lastUpdated": "2021-01-05T10:07:19.195+00:00"
  },
  "type": "searchset",
  "link": [
    {
      "relation": "self",
      "url": "http://hapi.fhir.org/baseR4?_getpages\u003db3ad5efb-e3ac-417a-8bdd-01c2c84cdaba\u0026_getpagesoffset\u003d180\u0026_count\u003d20\u0026_format\u003djson\u0026_pretty\u003dtrue\u0026_bundletype\u003dsearchset"
    },
    {
      "relation": "next",
      "url": "http://hapi.fhir.org/baseR4?_getpages\u003db3ad5efb-e3ac-417a-8bdd-01c2c84cdaba\u0026_getpagesoffset\u003d200\u0026_count\u003d20\u0026_format\u003djson\u0026_pretty\u003dtrue\u0026_bundletype\u003dsearchset"
    },
    {
      "relation": "previous",
      "url": "http://hapi.fhir.org/baseR4?_getpages\u003db3ad5efb-e3ac-417a-8bdd-01c2c84cdaba\u0026_getpagesoffset\u003d160\u0026_count\u003d20\u0026_format\u003djson\u0026_pretty\u003dtrue\u0026_bundletype\u003dsearchset"
    }
  ],
  "entry": [
    {
      "fullUrl": "http://hapi.fhir.org/baseR4/Condition/1378065",
      "resource": {
        "resourceType": "Condition",
        "id": "1378065",
        "meta": {
          "versionId": "1",
          "lastUpdated": "2020-07-08T21:52:54.547+00:00",
          "source": "#D9ZHGQjUIBSRLKhP"
        },
        "text": {
          "status": "generated",
          "div": "\u003cdiv xmlns\u003d\"http://www.w3.org/1999/xhtml\"\u003eGERD\u003c/div\u003e"
        },
        "category": [
          {
            "coding": [
              {
                "system": "http://snomed.info/sct",
                "code": "14657009",
                "display": "Diagnosis"
              }
            ],
            "text": "Diagnosis"
          }
        ],
        "severity": {
          "coding": [
            {
              "system": "http://snomed.info/ct",
              "code": "6736007",
              "display": "moderate"
            }
          ],
          "text": "Moderate"
        },
        "code": {
          "coding": [
            {
              "system": "http://snomed.info/ct",
              "code": "235595009",
              "display": "GERD"
            }
          ],
          "text": "GERD"
        },
        "subject": {
          "reference": "Patient/1378056"
        },
        "onsetAge": {
          "value": 66,
          "system": "http://unitsofmeasure.org",
          "code": "a"
        }
      },
      "search": {
        "mode": "match"
      }
    },
    {
      "fullUrl": "http://hapi.fhir.org/baseR4/Condition/1378064",
      "resource": {
        "resourceType": "Condition",
        "id": "1378064",
        "meta": {
          "versionId": "1",
          "lastUpdated": "2020-07-08T21:52:54.547+00:00",
          "source": "#D9ZHGQjUIBSRLKhP"
        },
        "text": {
          "status": "generated",
          "div": "\u003cdiv xmlns\u003d\"http://www.w3.org/1999/xhtml\"\u003eRheumatoid arthritis - left elbow\u003c/div\u003e"
        },
        "category": [
          {
            "coding": [
              {
                "system": "http://snomed.info/sct",
                "code": "14657009",
                "display": "Diagnosis"
              }
            ],
            "text": "Diagnosis"
          }
        ],
        "severity": {
          "coding": [
            {
              "system": "http://snomed.info/ct",
              "code": "6736007",
              "display": "mild to moderate"
            }
          ],
          "text": "Diagnosis"
        },
        "code": {
          "coding": [
            {
              "system": "http://snomed.info/ct",
              "code": "69896004",
              "display": "rheumatoid arthritis"
            }
          ],
          "text": "rheumatoid arthritis - left elbow"
        },
        "subject": {
          "reference": "Patient/1378056"
        },
        "onsetAge": {
          "value": 74,
          "system": "http://unitsofmeasure.org",
          "code": "a"
        },
        "evidence": [
          {
            "code": [
              {
                "coding": [
                  {
                    "system": "http://snomed.info/ct",
                    "code": "57676002",
                    "display": "Painful Joint"
                  }
                ],
                "text": "Painful joint"
              }
            ]
          }
        ]
      },
      "search": {
        "mode": "match"
      }
    },
    {
      "fullUrl": "http://hapi.fhir.org/baseR4/Condition/1378067",
      "resource": {
        "resourceType": "Condition",
        "id": "1378067",
        "meta": {
          "versionId": "1",
          "lastUpdated": "2020-07-08T21:52:54.547+00:00",
          "source": "#D9ZHGQjUIBSRLKhP"
        },
        "text": {
          "status": "generated",
          "div": "\u003cdiv xmlns\u003d\"http://www.w3.org/1999/xhtml\"\u003eOnychomycosis\u003c/div\u003e"
        },
        "category": [
          {
            "coding": [
              {
                "system": "http://snomed.info/sct",
                "code": "14657009",
                "display": "Diagnosis"
              }
            ],
            "text": "Diagnosis"
          }
        ],
        "severity": {
          "coding": [
            {
              "system": "http://snomed.info/ct",
              "code": "24484000",
              "display": "severe"
            }
          ],
          "text": "severe"
        },
        "code": {
          "coding": [
            {
              "system": "http://snomed.info/ct",
              "code": "414941998",
              "display": "onychomycosis"
            }
          ],
          "text": "onychomycosis"
        },
        "subject": {
          "reference": "Patient/1378056"
        },
        "onsetAge": {
          "value": 77,
          "system": "http://unitsofmeasure.org",
          "code": "a"
        }
      },
      "search": {
        "mode": "match"
      }
    },
    {
      "fullUrl": "http://hapi.fhir.org/baseR4/Condition/1378066",
      "resource": {
        "resourceType": "Condition",
        "id": "1378066",
        "meta": {
          "versionId": "1",
          "lastUpdated": "2020-07-08T21:52:54.547+00:00",
          "source": "#D9ZHGQjUIBSRLKhP"
        },
        "text": {
          "status": "generated",
          "div": "\u003cdiv xmlns\u003d\"http://www.w3.org/1999/xhtml\"\u003eHypercholesterolaemia\u003c/div\u003e"
        },
        "category": [
          {
            "coding": [
              {
                "system": "http://snomed.info/sct",
                "code": "14657009",
                "display": "Diagnosis"
              }
            ],
            "text": "Diagnosis"
          }
        ],
        "severity": {
          "coding": [
            {
              "system": "http://snomed.info/ct",
              "code": "6736007",
              "display": "moderate"
            }
          ],
          "text": "Moderate"
        },
        "code": {
          "coding": [
            {
              "system": "http://snomed.info/ct",
              "code": "13644009",
              "display": "high cholesterol"
            }
          ],
          "text": "high cholesterol"
        },
        "subject": {
          "reference": "Patient/1378056"
        },
        "onsetAge": {
          "value": 68,
          "system": "http://unitsofmeasure.org",
          "code": "a"
        }
      },
      "search": {
        "mode": "match"
      }
    },
    {
      "fullUrl": "http://hapi.fhir.org/baseR4/Condition/1378058",
      "resource": {
        "resourceType": "Condition",
        "id": "1378058",
        "meta": {
          "versionId": "1",
          "lastUpdated": "2020-07-08T21:52:54.547+00:00",
          "source": "#D9ZHGQjUIBSRLKhP"
        },
        "text": {
          "status": "generated",
          "div": "\u003cdiv xmlns\u003d\"http://www.w3.org/1999/xhtml\"\u003eAsthma\u003c/div\u003e"
        },
        "category": [
          {
            "coding": [
              {
                "system": "http://snomed.info/sct",
                "code": "14657009",
                "display": "Diagnosis"
              }
            ],
            "text": "Diagnosis"
          }
        ],
        "severity": {
          "coding": [
            {
              "system": "http://snomed.info/ct",
              "code": "6736007",
              "display": "mild to moderate"
            }
          ],
          "text": "mild to moderate"
        },
        "code": {
          "coding": [
            {
              "system": "http://snomed.info/ct",
              "code": "195917001",
              "display": "asthma"
            }
          ],
          "text": "asthma"
        },
        "subject": {
          "reference": "Patient/1378056"
        },
        "onsetAge": {
          "value": 14,
          "system": "http://unitsofmeasure.org",
          "code": "a"
        }
      },
      "search": {
        "mode": "match"
      }
    },
    {
      "fullUrl": "http://hapi.fhir.org/baseR4/Condition/1378068",
      "resource": {
        "resourceType": "Condition",
        "id": "1378068",
        "meta": {
          "versionId": "1",
          "lastUpdated": "2020-07-08T21:52:54.547+00:00",
          "source": "#D9ZHGQjUIBSRLKhP"
        },
        "text": {
          "status": "generated",
          "div": "\u003cdiv xmlns\u003d\"http://www.w3.org/1999/xhtml\"\u003eAngina\u003c/div\u003e"
        },
        "category": [
          {
            "coding": [
              {
                "system": "http://snomed.info/sct",
                "code": "14657009",
                "display": "Diagnosis"
              }
            ],
            "text": "Diagnosis"
          }
        ],
        "severity": {
          "coding": [
            {
              "system": "http://snomed.info/ct",
              "code": "6736007",
              "display": "moderate"
            }
          ],
          "text": "Moderate"
        },
        "code": {
          "coding": [
            {
              "system": "http://snomed.info/ct",
              "code": "194818000",
              "display": "angina"
            }
          ],
          "text": "angina"
        },
        "subject": {
          "reference": "Patient/1378056"
        },
        "onsetAge": {
          "value": 76,
          "system": "http://unitsofmeasure.org",
          "code": "a"
        },
        "evidence": [
          {
            "code": [
              {
                "coding": [
                  {
                    "system": "http://snomed.info/ct",
                    "code": "29857009",
                    "display": "Chest Pain"
                  }
                ],
                "text": "Chest Pain"
              }
            ]
          }
        ]
      },
      "search": {
        "mode": "match"
      }
    },
    {
      "fullUrl": "http://hapi.fhir.org/baseR4/Condition/1378059",
      "resource": {
        "resourceType": "Condition",
        "id": "1378059",
        "meta": {
          "versionId": "1",
          "lastUpdated": "2020-07-08T21:52:54.547+00:00",
          "source": "#D9ZHGQjUIBSRLKhP"
        },
        "text": {
          "status": "generated",
          "div": "\u003cdiv xmlns\u003d\"http://www.w3.org/1999/xhtml\"\u003eDiabetes\u003c/div\u003e"
        },
        "category": [
          {
            "coding": [
              {
                "system": "http://snomed.info/sct",
                "code": "14657009",
                "display": "Diagnosis"
              }
            ],
            "text": "Diagnosis"
          }
        ],
        "severity": {
          "coding": [
            {
              "system": "http://snomed.info/ct",
              "code": "6736007",
              "display": "moderate"
            }
          ],
          "text": "moderate"
        },
        "code": {
          "coding": [
            {
              "system": "http://snomed.info/ct",
              "code": "73211009",
              "display": "diabetes"
            }
          ],
          "text": "diabetes"
        },
        "subject": {
          "reference": "Patient/1378056"
        },
        "onsetAge": {
          "value": 60,
          "system": "http://unitsofmeasure.org",
          "code": "a"
        }
      },
      "search": {
        "mode": "match"
      }
    },
    {
      "fullUrl": "http://hapi.fhir.org/baseR4/Condition/1378140",
      "resource": {
        "resourceType": "Condition",
        "id": "1378140",
        "meta": {
          "versionId": "1",
          "lastUpdated": "2020-07-08T21:56:23.349+00:00",
          "source": "#asYUNnXv1Z97G40Z"
        },
        "text": {
          "status": "generated",
          "div": "\u003cdiv xmlns\u003d\"http://www.w3.org/1999/xhtml\"\u003eNeuropathic pain\u003c/div\u003e"
        },
        "category": [
          {
            "coding": [
              {
                "system": "http://snomed.info/sct",
                "code": "14657009",
                "display": "Diagnosis"
              }
            ],
            "text": "Diagnosis"
          }
        ],
        "severity": {
          "coding": [
            {
              "system": "http://snomed.info/ct",
              "code": "6736007",
              "display": "moderate"
            }
          ],
          "text": "moderate"
        },
        "code": {
          "coding": [
            {
              "system": "http://snomed.info/ct",
              "code": "247389009",
              "display": "neuropathic pain"
            }
          ],
          "text": "neuropathic pain"
        },
        "subject": {
          "reference": "Patient/1378134"
        },
        "onsetAge": {
          "value": 75,
          "system": "http://unitsofmeasure.org",
          "code": "a"
        }
      },
      "search": {
        "mode": "match"
      }
    },
    {
      "fullUrl": "http://hapi.fhir.org/baseR4/Condition/1378142",
      "resource": {
        "resourceType": "Condition",
        "id": "1378142",
        "meta": {
          "versionId": "1",
          "lastUpdated": "2020-07-08T21:56:23.349+00:00",
          "source": "#asYUNnXv1Z97G40Z"
        },
        "text": {
          "status": "generated",
          "div": "\u003cdiv xmlns\u003d\"http://www.w3.org/1999/xhtml\"\u003eRheumatoid arthritis - left elbow\u003c/div\u003e"
        },
        "category": [
          {
            "coding": [
              {
                "system": "http://snomed.info/sct",
                "code": "14657009",
                "display": "Diagnosis"
              }
            ],
            "text": "Diagnosis"
          }
        ],
        "severity": {
          "coding": [
            {
              "system": "http://snomed.info/ct",
              "code": "6736007",
              "display": "mild to moderate"
            }
          ],
          "text": "Diagnosis"
        },
        "code": {
          "coding": [
            {
              "system": "http://snomed.info/ct",
              "code": "69896004",
              "display": "rheumatoid arthritis"
            }
          ],
          "text": "rheumatoid arthritis - left elbow"
        },
        "subject": {
          "reference": "Patient/1378134"
        },
        "onsetAge": {
          "value": 74,
          "system": "http://unitsofmeasure.org",
          "code": "a"
        },
        "evidence": [
          {
            "code": [
              {
                "coding": [
                  {
                    "system": "http://snomed.info/ct",
                    "code": "57676002",
                    "display": "Painful Joint"
                  }
                ],
                "text": "Painful joint"
              }
            ]
          }
        ]
      },
      "search": {
        "mode": "match"
      }
    },
    {
      "fullUrl": "http://hapi.fhir.org/baseR4/Condition/1378141",
      "resource": {
        "resourceType": "Condition",
        "id": "1378141",
        "meta": {
          "versionId": "1",
          "lastUpdated": "2020-07-08T21:56:23.349+00:00",
          "source": "#asYUNnXv1Z97G40Z"
        },
        "text": {
          "status": "generated",
          "div": "\u003cdiv xmlns\u003d\"http://www.w3.org/1999/xhtml\"\u003eRheumatoid Arthritis\u003c/div\u003e"
        },
        "category": [
          {
            "coding": [
              {
                "system": "http://snomed.info/sct",
                "code": "14657009",
                "display": "Diagnosis"
              }
            ],
            "text": "Diagnosis"
          }
        ],
        "severity": {
          "coding": [
            {
              "system": "http://snomed.info/ct",
              "code": "6736007",
              "display": "moderate"
            }
          ],
          "text": "Moderate"
        },
        "code": {
          "coding": [
            {
              "system": "http://snomed.info/ct",
              "code": "69896004",
              "display": "rheumatoid arthritis"
            }
          ],
          "text": "rheumatoid arthritis - both hands"
        },
        "bodySite": [
          {
            "coding": [
              {
                "system": "http://snomed.info/ct",
                "code": "12861001",
                "display": "both hands"
              }
            ],
            "text": "both hands"
          }
        ],
        "subject": {
          "reference": "Patient/1378134"
        },
        "onsetAge": {
          "value": 72,
          "system": "http://unitsofmeasure.org",
          "code": "a"
        },
        "evidence": [
          {
            "code": [
              {
                "coding": [
                  {
                    "system": "http://snomed.info/ct",
                    "code": "57676002",
                    "display": "Painful Joint"
                  }
                ],
                "text": "Painful joint"
              }
            ]
          }
        ]
      },
      "search": {
        "mode": "match"
      }
    },
    {
      "fullUrl": "http://hapi.fhir.org/baseR4/Condition/1378144",
      "resource": {
        "resourceType": "Condition",
        "id": "1378144",
        "meta": {
          "versionId": "1",
          "lastUpdated": "2020-07-08T21:56:23.349+00:00",
          "source": "#asYUNnXv1Z97G40Z"
        },
        "text": {
          "status": "generated",
          "div": "\u003cdiv xmlns\u003d\"http://www.w3.org/1999/xhtml\"\u003eHypercholesterolaemia\u003c/div\u003e"
        },
        "category": [
          {
            "coding": [
              {
                "system": "http://snomed.info/sct",
                "code": "14657009",
                "display": "Diagnosis"
              }
            ],
            "text": "Diagnosis"
          }
        ],
        "severity": {
          "coding": [
            {
              "system": "http://snomed.info/ct",
              "code": "6736007",
              "display": "moderate"
            }
          ],
          "text": "Moderate"
        },
        "code": {
          "coding": [
            {
              "system": "http://snomed.info/ct",
              "code": "13644009",
              "display": "high cholesterol"
            }
          ],
          "text": "high cholesterol"
        },
        "subject": {
          "reference": "Patient/1378134"
        },
        "onsetAge": {
          "value": 68,
          "system": "http://unitsofmeasure.org",
          "code": "a"
        }
      },
      "search": {
        "mode": "match"
      }
    },
    {
      "fullUrl": "http://hapi.fhir.org/baseR4/Condition/1378143",
      "resource": {
        "resourceType": "Condition",
        "id": "1378143",
        "meta": {
          "versionId": "1",
          "lastUpdated": "2020-07-08T21:56:23.349+00:00",
          "source": "#asYUNnXv1Z97G40Z"
        },
        "text": {
          "status": "generated",
          "div": "\u003cdiv xmlns\u003d\"http://www.w3.org/1999/xhtml\"\u003eGERD\u003c/div\u003e"
        },
        "category": [
          {
            "coding": [
              {
                "system": "http://snomed.info/sct",
                "code": "14657009",
                "display": "Diagnosis"
              }
            ],
            "text": "Diagnosis"
          }
        ],
        "severity": {
          "coding": [
            {
              "system": "http://snomed.info/ct",
              "code": "6736007",
              "display": "moderate"
            }
          ],
          "text": "Moderate"
        },
        "code": {
          "coding": [
            {
              "system": "http://snomed.info/ct",
              "code": "235595009",
              "display": "GERD"
            }
          ],
          "text": "GERD"
        },
        "subject": {
          "reference": "Patient/1378134"
        },
        "onsetAge": {
          "value": 66,
          "system": "http://unitsofmeasure.org",
          "code": "a"
        }
      },
      "search": {
        "mode": "match"
      }
    },
    {
      "fullUrl": "http://hapi.fhir.org/baseR4/Condition/1378146",
      "resource": {
        "resourceType": "Condition",
        "id": "1378146",
        "meta": {
          "versionId": "1",
          "lastUpdated": "2020-07-08T21:56:23.349+00:00",
          "source": "#asYUNnXv1Z97G40Z"
        },
        "text": {
          "status": "generated",
          "div": "\u003cdiv xmlns\u003d\"http://www.w3.org/1999/xhtml\"\u003eAngina\u003c/div\u003e"
        },
        "category": [
          {
            "coding": [
              {
                "system": "http://snomed.info/sct",
                "code": "14657009",
                "display": "Diagnosis"
              }
            ],
            "text": "Diagnosis"
          }
        ],
        "severity": {
          "coding": [
            {
              "system": "http://snomed.info/ct",
              "code": "6736007",
              "display": "moderate"
            }
          ],
          "text": "Moderate"
        },
        "code": {
          "coding": [
            {
              "system": "http://snomed.info/ct",
              "code": "194818000",
              "display": "angina"
            }
          ],
          "text": "angina"
        },
        "subject": {
          "reference": "Patient/1378134"
        },
        "onsetAge": {
          "value": 76,
          "system": "http://unitsofmeasure.org",
          "code": "a"
        },
        "evidence": [
          {
            "code": [
              {
                "coding": [
                  {
                    "system": "http://snomed.info/ct",
                    "code": "29857009",
                    "display": "Chest Pain"
                  }
                ],
                "text": "Chest Pain"
              }
            ]
          }
        ]
      },
      "search": {
        "mode": "match"
      }
    },
    {
      "fullUrl": "http://hapi.fhir.org/baseR4/Condition/1378145",
      "resource": {
        "resourceType": "Condition",
        "id": "1378145",
        "meta": {
          "versionId": "1",
          "lastUpdated": "2020-07-08T21:56:23.349+00:00",
          "source": "#asYUNnXv1Z97G40Z"
        },
        "text": {
          "status": "generated",
          "div": "\u003cdiv xmlns\u003d\"http://www.w3.org/1999/xhtml\"\u003eOnychomycosis\u003c/div\u003e"
        },
        "category": [
          {
            "coding": [
              {
                "system": "http://snomed.info/sct",
                "code": "14657009",
                "display": "Diagnosis"
              }
            ],
            "text": "Diagnosis"
          }
        ],
        "severity": {
          "coding": [
            {
              "system": "http://snomed.info/ct",
              "code": "24484000",
              "display": "severe"
            }
          ],
          "text": "severe"
        },
        "code": {
          "coding": [
            {
              "system": "http://snomed.info/ct",
              "code": "414941998",
              "display": "onychomycosis"
            }
          ],
          "text": "onychomycosis"
        },
        "subject": {
          "reference": "Patient/1378134"
        },
        "onsetAge": {
          "value": 77,
          "system": "http://unitsofmeasure.org",
          "code": "a"
        }
      },
      "search": {
        "mode": "match"
      }
    },
    {
      "fullUrl": "http://hapi.fhir.org/baseR4/Condition/1378137",
      "resource": {
        "resourceType": "Condition",
        "id": "1378137",
        "meta": {
          "versionId": "1",
          "lastUpdated": "2020-07-08T21:56:23.349+00:00",
          "source": "#asYUNnXv1Z97G40Z"
        },
        "text": {
          "status": "generated",
          "div": "\u003cdiv xmlns\u003d\"http://www.w3.org/1999/xhtml\"\u003eDiabetes\u003c/div\u003e"
        },
        "category": [
          {
            "coding": [
              {
                "system": "http://snomed.info/sct",
                "code": "14657009",
                "display": "Diagnosis"
              }
            ],
            "text": "Diagnosis"
          }
        ],
        "severity": {
          "coding": [
            {
              "system": "http://snomed.info/ct",
              "code": "6736007",
              "display": "moderate"
            }
          ],
          "text": "moderate"
        },
        "code": {
          "coding": [
            {
              "system": "http://snomed.info/ct",
              "code": "73211009",
              "display": "diabetes"
            }
          ],
          "text": "diabetes"
        },
        "subject": {
          "reference": "Patient/1378134"
        },
        "onsetAge": {
          "value": 60,
          "system": "http://unitsofmeasure.org",
          "code": "a"
        }
      },
      "search": {
        "mode": "match"
      }
    },
    {
      "fullUrl": "http://hapi.fhir.org/baseR4/Condition/1378136",
      "resource": {
        "resourceType": "Condition",
        "id": "1378136",
        "meta": {
          "versionId": "1",
          "lastUpdated": "2020-07-08T21:56:23.349+00:00",
          "source": "#asYUNnXv1Z97G40Z"
        },
        "text": {
          "status": "generated",
          "div": "\u003cdiv xmlns\u003d\"http://www.w3.org/1999/xhtml\"\u003eAsthma\u003c/div\u003e"
        },
        "category": [
          {
            "coding": [
              {
                "system": "http://snomed.info/sct",
                "code": "14657009",
                "display": "Diagnosis"
              }
            ],
            "text": "Diagnosis"
          }
        ],
        "severity": {
          "coding": [
            {
              "system": "http://snomed.info/ct",
              "code": "6736007",
              "display": "mild to moderate"
            }
          ],
          "text": "mild to moderate"
        },
        "code": {
          "coding": [
            {
              "system": "http://snomed.info/ct",
              "code": "195917001",
              "display": "asthma"
            }
          ],
          "text": "asthma"
        },
        "subject": {
          "reference": "Patient/1378134"
        },
        "onsetAge": {
          "value": 14,
          "system": "http://unitsofmeasure.org",
          "code": "a"
        }
      },
      "search": {
        "mode": "match"
      }
    },
    {
      "fullUrl": "http://hapi.fhir.org/baseR4/Condition/1378139",
      "resource": {
        "resourceType": "Condition",
        "id": "1378139",
        "meta": {
          "versionId": "1",
          "lastUpdated": "2020-07-08T21:56:23.349+00:00",
          "source": "#asYUNnXv1Z97G40Z"
        },
        "text": {
          "status": "generated",
          "div": "\u003cdiv xmlns\u003d\"http://www.w3.org/1999/xhtml\"\u003eDepression\u003c/div\u003e"
        },
        "category": [
          {
            "coding": [
              {
                "system": "http://snomed.info/sct",
                "code": "14657009",
                "display": "Diagnosis"
              }
            ],
            "text": "Diagnosis"
          }
        ],
        "severity": {
          "coding": [
            {
              "system": "http://snomed.info/ct",
              "code": "6736007",
              "display": "moderate"
            }
          ],
          "text": "Moderate"
        },
        "code": {
          "coding": [
            {
              "system": "http://snomed.info/ct",
              "code": "35489007",
              "display": "depression"
            }
          ],
          "text": "depression"
        },
        "subject": {
          "reference": "Patient/1378134"
        },
        "onsetAge": {
          "value": 74,
          "system": "http://unitsofmeasure.org",
          "code": "a"
        }
      },
      "search": {
        "mode": "match"
      }
    },
    {
      "fullUrl": "http://hapi.fhir.org/baseR4/Condition/1378138",
      "resource": {
        "resourceType": "Condition",
        "id": "1378138",
        "meta": {
          "versionId": "1",
          "lastUpdated": "2020-07-08T21:56:23.349+00:00",
          "source": "#asYUNnXv1Z97G40Z"
        },
        "text": {
          "status": "generated",
          "div": "\u003cdiv xmlns\u003d\"http://www.w3.org/1999/xhtml\"\u003eHypertension\u003c/div\u003e"
        },
        "category": [
          {
            "coding": [
              {
                "system": "http://snomed.info/sct",
                "code": "14657009",
                "display": "Diagnosis"
              }
            ],
            "text": "Diagnosis"
          }
        ],
        "severity": {
          "coding": [
            {
              "system": "http://snomed.info/ct",
              "code": "255604002",
              "display": "mild"
            }
          ],
          "text": "Mild"
        },
        "code": {
          "coding": [
            {
              "system": "http://snomed.info/ct",
              "code": "38341003",
              "display": "hypertension"
            }
          ],
          "text": "hypertension"
        },
        "subject": {
          "reference": "Patient/1378134"
        },
        "onsetAge": {
          "value": 68,
          "system": "http://unitsofmeasure.org",
          "code": "a"
        }
      },
      "search": {
        "mode": "match"
      }
    },
    {
      "fullUrl": "http://hapi.fhir.org/baseR4/Condition/1378220",
      "resource": {
        "resourceType": "Condition",
        "id": "1378220",
        "meta": {
          "versionId": "1",
          "lastUpdated": "2020-07-08T22:45:40.513+00:00",
          "source": "#3SdyuHNSZkUhcTR3"
        },
        "text": {
          "status": "generated",
          "div": "\u003cdiv xmlns\u003d\"http://www.w3.org/1999/xhtml\"\u003eRheumatoid arthritis - left elbow\u003c/div\u003e"
        },
        "category": [
          {
            "coding": [
              {
                "system": "http://snomed.info/sct",
                "code": "14657009",
                "display": "Diagnosis"
              }
            ],
            "text": "Diagnosis"
          }
        ],
        "severity": {
          "coding": [
            {
              "system": "http://snomed.info/ct",
              "code": "6736007",
              "display": "mild to moderate"
            }
          ],
          "text": "Diagnosis"
        },
        "code": {
          "coding": [
            {
              "system": "http://snomed.info/ct",
              "code": "69896004",
              "display": "rheumatoid arthritis"
            }
          ],
          "text": "rheumatoid arthritis - left elbow"
        },
        "subject": {
          "reference": "Patient/1378212"
        },
        "onsetAge": {
          "value": 74,
          "system": "http://unitsofmeasure.org",
          "code": "a"
        },
        "evidence": [
          {
            "code": [
              {
                "coding": [
                  {
                    "system": "http://snomed.info/ct",
                    "code": "57676002",
                    "display": "Painful Joint"
                  }
                ],
                "text": "Painful joint"
              }
            ]
          }
        ]
      },
      "search": {
        "mode": "match"
      }
    },
    {
      "fullUrl": "http://hapi.fhir.org/baseR4/Condition/1378223",
      "resource": {
        "resourceType": "Condition",
        "id": "1378223",
        "meta": {
          "versionId": "1",
          "lastUpdated": "2020-07-08T22:45:40.513+00:00",
          "source": "#3SdyuHNSZkUhcTR3"
        },
        "text": {
          "status": "generated",
          "div": "\u003cdiv xmlns\u003d\"http://www.w3.org/1999/xhtml\"\u003eOnychomycosis\u003c/div\u003e"
        },
        "category": [
          {
            "coding": [
              {
                "system": "http://snomed.info/sct",
                "code": "14657009",
                "display": "Diagnosis"
              }
            ],
            "text": "Diagnosis"
          }
        ],
        "severity": {
          "coding": [
            {
              "system": "http://snomed.info/ct",
              "code": "24484000",
              "display": "severe"
            }
          ],
          "text": "severe"
        },
        "code": {
          "coding": [
            {
              "system": "http://snomed.info/ct",
              "code": "414941998",
              "display": "onychomycosis"
            }
          ],
          "text": "onychomycosis"
        },
        "subject": {
          "reference": "Patient/1378212"
        },
        "onsetAge": {
          "value": 77,
          "system": "http://unitsofmeasure.org",
          "code": "a"
        }
      },
      "search": {
        "mode": "match"
      }
    },
    {
      "fullUrl": "http://hapi.fhir.org/baseR4/Patient/1378212",
      "resource": {
        "resourceType": "Patient",
        "id": "1378212",
        "meta": {
          "versionId": "1",
          "lastUpdated": "2020-07-08T22:45:38.646+00:00",
          "source": "#Rul1TDCq7kVBJXy3"
        },
        "text": {
          "status": "generated",
          "div": "\u003cdiv xmlns\u003d\"http://www.w3.org/1999/xhtml\"\u003eCameron Martin\u003c/div\u003e"
        },
        "name": [
          {
            "use": "official",
            "text": "Cameron Martin",
            "family": "Martin",
            "given": [
              "Cameron"
            ]
          }
        ],
        "gender": "male",
        "birthDate": "2020-07-09"
      },
      "search": {
        "mode": "include"
      }
    },
    {
      "fullUrl": "http://hapi.fhir.org/baseR4/Patient/1378134",
      "resource": {
        "resourceType": "Patient",
        "id": "1378134",
        "meta": {
          "versionId": "4",
          "lastUpdated": "2020-07-17T18:20:15.396+00:00",
          "source": "#HhO7kJyVpG1UZ6br"
        },
        "text": {
          "status": "generated",
          "div": "\u003cdiv xmlns\u003d\"http://www.w3.org/1999/xhtml\"\u003eCharlie Jackson\u003c/div\u003e"
        },
        "name": [
          {
            "use": "official",
            "text": "Charlie Baba",
            "family": "Jackson",
            "given": [
              "Charlie"
            ]
          }
        ],
        "gender": "male",
        "birthDate": "2020-07-08"
      },
      "search": {
        "mode": "include"
      }
    },
    {
      "fullUrl": "http://hapi.fhir.org/baseR4/Patient/1378056",
      "resource": {
        "resourceType": "Patient",
        "id": "1378056",
        "meta": {
          "versionId": "1",
          "lastUpdated": "2020-07-08T21:52:53.366+00:00",
          "source": "#5CmUUZDaMYKmmWdb"
        },
        "text": {
          "status": "generated",
          "div": "\u003cdiv xmlns\u003d\"http://www.w3.org/1999/xhtml\"\u003eSophia Wilson\u003c/div\u003e"
        },
        "identifier": [
          {
            "system": "http://clinfhir.com/fhir/NamingSystem/identifier",
            "value": "80802020"
          }
        ],
        "name": [
          {
            "use": "official",
            "text": "Sophia Wilson",
            "family": "Wilson",
            "given": [
              "Sophia"
            ]
          }
        ],
        "gender": "female",
        "birthDate": "2020-07-08"
      },
      "search": {
        "mode": "include"
      }
    }
  ]
}