{
  "resourceType": "Bundle",
  "id": "b3ad5efb-e3ac-417a-8bdd-01c2c84cdaba",
  "meta": {
    "lastUpdated": "2021-01-05T10:07:19.195+00:00"
  },
  "type": "searchset",
  "link": [
    {
      "relation": "self",
      "url": "http://hapi.fhir.org/baseR4?_getpages\u003db3ad5efb-e3ac-417a-8bdd-01c2c84cdaba\u0026_getpagesoffset\u003d100\u0026_count\u003d20\u0026_format\u003djson\u0026_pretty\u003dtrue\u0026_bundletype\u003dsearchset"
    },
    {
      "relation": "next",
      "url": "http://hapi.fhir.org/baseR4?_getpages\u003db3ad5efb-e3ac-417a-8bdd-01c2c84cdaba\u0026_getpagesoffset\u003d120\u0026_count\u003d20\u0026_format\u003djson\u0026_pretty\u003dtrue\u0026_bundletype\u003dsearchset"
    },
    {
      "relation": "previous",
      "url": "http://hapi.fhir.org/baseR4?_getpages\u003db3ad5efb-e3ac-417a-8bdd-01c2c84cdaba\u0026_getpagesoffset\u003d80\u0026_count\u003d20\u0026_format\u003djson\u0026_pretty\u003dtrue\u0026_bundletype\u003dsearchset"
    }
  ],
  "entry": [
    {
      "fullUrl": "http://hapi.fhir.org/baseR4/Condition/1373742",
      "resource": {
        "resourceType": "Condition",
        "id": "1373742",
        "meta": {
          "versionId": "1",
          "lastUpdated": "2020-07-07T11:47:30.103+00:00",
          "source": "#fLLtssolIn9srT7y"
        },
        "code": {
          "coding": [
            {
              "system": "http://snomed.info/sct",
              "code": "204256004",
              "display": "Congenital pointed ear"
            }
          ]
        },
        "subject": {
          "reference": "Patient/1373109",
          "display": "Burnham, Michael"
        }
      },
      "search": {
        "mode": "match"
      }
    },
    {
      "fullUrl": "http://hapi.fhir.org/baseR4/Condition/1373728",
      "resource": {
        "resourceType": "Condition",
        "id": "1373728",
        "meta": {
          "versionId": "4",
          "lastUpdated": "2020-07-07T12:25:10.313+00:00",
          "source": "#VOAYGsDPCdNvnKNL"
        },
        "contained": [
          {
            "resourceType": "Practitioner",
            "id": "contained-practitioner-1",
            "name": [
              {
                "family": "McCoy",
                "given": [
                  "Leonard"
                ]
              }
            ]
          }
        ],
        "verificationStatus": {
          "coding": [
            {
              "system": "http://terminology.hl7.org/CodeSystem/condition-ver-status",
              "code": "confirmed",
              "display": "Confirmed"
            }
          ]
        },
        "code": {
          "coding": [
            {
              "system": "http://snomed.info/sct",
              "code": "204256004",
              "display": "Congenital pointed ear (disorder)"
            }
          ]
        },
        "subject": {
          "fhir_comments": [
            " adding reference to patient with id "
          ],
          "reference": "Patient/1373111",
          "display": "Dr. Who, What The F**k"
        },
        "asserter": {
          "reference": "#contained-practitioner-1"
        }
      },
      "search": {
        "mode": "match"
      }
    },
    {
      "fullUrl": "http://hapi.fhir.org/baseR4/Condition/1373767",
      "resource": {
        "resourceType": "Condition",
        "id": "1373767",
        "meta": {
          "versionId": "1",
          "lastUpdated": "2020-07-07T11:56:49.148+00:00",
          "source": "#3DUhR9jYhOeuZXMb"
        },
        "code": {
          "coding": [
            {
              "system": "http://snomed.info/sct",
              "code": "204256004",
              "display": "Congenital pointed ear"
            }
          ]
        },
        "subject": {
          "reference": "Patient/1373135",
          "display": "Star, Patrick"
        }
      },
      "search": {
        "mode": "match"
      }
    },
    {
      "fullUrl": "http://hapi.fhir.org/baseR4/Condition/1373782",
      "resource": {
        "resourceType": "Condition",
        "id": "1373782",
        "meta": {
          "versionId": "1",
          "lastUpdated": "2020-07-07T12:02:15.278+00:00",
          "source": "#kuxvpq0DigT8K7y6"
        },
        "code": {
          "coding": [
            {
              "system": "http://snomed.info/sct",
              "code": "204256004",
              "display": "Congenital pointed ear"
            }
          ]
        },
        "subject": {
          "reference": "Patient/1373116"
        }
      },
      "search": {
        "mode": "match"
      }
    },
    {
      "fullUrl": "http://hapi.fhir.org/baseR4/Condition/1373789",
      "resource": {
        "resourceType": "Condition",
        "id": "1373789",
        "meta": {
          "versionId": "1",
          "lastUpdated": "2020-07-07T12:05:02.578+00:00",
          "source": "#lhPMijuFk8pxHcJj"
        },
        "code": {
          "coding": [
            {
              "system": "http://snomed.info/sct",
              "code": "204256004",
              "display": "Congenital pointed ear"
            }
          ]
        },
        "subject": {
          "reference": "Patient/1373109",
          "display": "Burnham, Michael"
        }
      },
      "search": {
        "mode": "match"
      }
    },
    {
      "fullUrl": "http://hapi.fhir.org/baseR4/Condition/1373790",
      "resource": {
        "resourceType": "Condition",
        "id": "1373790",
        "meta": {
          "versionId": "1",
          "lastUpdated": "2020-07-07T12:05:18.302+00:00",
          "source": "#jymK18gDK7iiA5pm"
        },
        "code": {
          "coding": [
            {
              "system": "http://snomed.info/sct",
              "code": "204256004",
              "display": "Congenital pointed ear"
            }
          ]
        },
        "subject": {
          "reference": "Patient/1373109",
          "display": "Burnham, Michael"
        }
      },
      "search": {
        "mode": "match"
      }
    },
    {
      "fullUrl": "http://hapi.fhir.org/baseR4/Condition/1373804",
      "resource": {
        "resourceType": "Condition",
        "id": "1373804",
        "meta": {
          "versionId": "1",
          "lastUpdated": "2020-07-07T12:10:33.435+00:00",
          "source": "#C2PDLlHHVb3Pq3TX"
        },
        "code": {
          "coding": [
            {
              "system": "http://snomed.info/sct",
              "code": "204256004",
              "display": "Congenital pointed ear (disorder)"
            }
          ]
        },
        "subject": {
          "reference": "Patient/1373108",
          "display": "Franz Kafka"
        },
        "asserter": {
          "reference": "#contaiend-practitioner"
        }
      },
      "search": {
        "mode": "match"
      }
    },
    {
      "fullUrl": "http://hapi.fhir.org/baseR4/Condition/1373810",
      "resource": {
        "resourceType": "Condition",
        "id": "1373810",
        "meta": {
          "versionId": "1",
          "lastUpdated": "2020-07-07T12:13:23.019+00:00",
          "source": "#uMpdNMePH2URzBmr"
        },
        "verificationStatus": {
          "coding": [
            {
              "system": "http://terminology.hl7.org/CodeSystem/condition",
              "code": "confirmed",
              "display": "Confirmed"
            }
          ]
        },
        "code": {
          "coding": [
            {
              "system": "http://snomed.info/sct",
              "code": "204256004",
              "display": "Congenital pointed ear"
            }
          ]
        },
        "subject": {
          "reference": "Patient/1373109",
          "display": "Burnham, Michael"
        }
      },
      "search": {
        "mode": "match"
      }
    },
    {
      "fullUrl": "http://hapi.fhir.org/baseR4/Condition/1373814",
      "resource": {
        "resourceType": "Condition",
        "id": "1373814",
        "meta": {
          "versionId": "1",
          "lastUpdated": "2020-07-07T12:14:43.391+00:00",
          "source": "#l97XLpqAFbrESgnu"
        },
        "verificationStatus": {
          "coding": [
            {
              "system": "http://terminology.hl7.org/CodeSystem/condition",
              "code": "confirmed",
              "display": "Confirmed"
            }
          ]
        },
        "code": {
          "coding": [
            {
              "system": "http://snomed.info/sct",
              "code": "204256004",
              "display": "Congenital pointed ear"
            }
          ]
        },
        "subject": {
          "reference": "Patient/1373109",
          "display": "Burnham, Michael"
        }
      },
      "search": {
        "mode": "match"
      }
    },
    {
      "fullUrl": "http://hapi.fhir.org/baseR4/Condition/1373818",
      "resource": {
        "resourceType": "Condition",
        "id": "1373818",
        "meta": {
          "versionId": "1",
          "lastUpdated": "2020-07-07T12:16:18.423+00:00",
          "source": "#NkNXaFUlW2mK02mb"
        },
        "verificationStatus": {
          "coding": [
            {
              "system": "http://terminology.hl7.org/CodeSystem/condition-ver-status",
              "code": "confirmed",
              "display": "Confirmed"
            }
          ]
        },
        "code": {
          "coding": [
            {
              "system": "http://snomed.info/sct",
              "code": "204256004",
              "display": "Congenital pointed ear"
            }
          ]
        },
        "subject": {
          "reference": "Patient/1373109",
          "display": "Burnham, Michael"
        }
      },
      "search": {
        "mode": "match"
      }
    },
    {
      "fullUrl": "http://hapi.fhir.org/baseR4/Condition/1373823",
      "resource": {
        "resourceType": "Condition",
        "id": "1373823",
        "meta": {
          "versionId": "1",
          "lastUpdated": "2020-07-07T12:18:25.981+00:00",
          "source": "#aiJndX17ZcQF9PCU"
        },
        "contained": [
          {
            "resourceType": "Practitioner",
            "id": "1",
            "name": [
              {
                "family": "McCoy",
                "given": [
                  "Leonard"
                ]
              }
            ]
          }
        ],
        "verificationStatus": {
          "coding": [
            {
              "system": "http://terminology.hl7.org/CodeSystem/condition-ver-status",
              "code": "confirmed",
              "display": "Confirmed"
            }
          ]
        },
        "code": {
          "coding": [
            {
              "system": "http://snomed.info/sct",
              "code": "204256004",
              "display": "Congenital pointed ear (disorder)"
            }
          ]
        },
        "subject": {
          "reference": "Patient/1373106",
          "display": "Heckmann, Simone"
        },
        "asserter": {
          "reference": "#1"
        }
      },
      "search": {
        "mode": "match"
      }
    },
    {
      "fullUrl": "http://hapi.fhir.org/baseR4/Condition/1373825",
      "resource": {
        "resourceType": "Condition",
        "id": "1373825",
        "meta": {
          "versionId": "1",
          "lastUpdated": "2020-07-07T12:18:32.570+00:00",
          "source": "#HasRXEmdTzca3l5s"
        },
        "contained": [
          {
            "resourceType": "Practitioner",
            "id": "contained-practitioner-McCoy",
            "name": [
              {
                "family": "McCoy",
                "given": [
                  "Leonard"
                ]
              }
            ]
          }
        ],
        "verificationStatus": {
          "coding": [
            {
              "system": "http://terminology.hl7.org/CodeSystem/condition-ver-status",
              "code": "confirmed"
            }
          ]
        },
        "code": {
          "coding": [
            {
              "system": "http://snomed.info/sct",
              "code": "204256004",
              "display": "Congenital pointed ear (disorder)"
            }
          ]
        },
        "subject": {
          "reference": "Patient/1373107",
          "display": "Burnham, Lena"
        },
        "asserter": {
          "reference": "#contained-practitioner-McCoy"
        }
      },
      "search": {
        "mode": "match"
      }
    },
    {
      "fullUrl": "http://hapi.fhir.org/baseR4/Condition/1373826",
      "resource": {
        "resourceType": "Condition",
        "id": "1373826",
        "meta": {
          "versionId": "1",
          "lastUpdated": "2020-07-07T12:18:49.014+00:00",
          "source": "#A9xjUQYborSfKzLu"
        },
        "contained": [
          {
            "resourceType": "Practitioner",
            "id": "containedPractitioner",
            "name": [
              {
                "family": "Pennyworth",
                "given": [
                  "Alfred"
                ],
                "suffix": [
                  "MD"
                ]
              }
            ]
          }
        ],
        "clinicalStatus": {
          "coding": [
            {
              "system": "http://terminology.hl7.org/CodeSystem/condition-clinical",
              "code": "active",
              "display": "Active"
            }
          ]
        },
        "verificationStatus": {
          "coding": [
            {
              "system": "http://terminology.hl7.org/CodeSystem/condition-ver-status",
              "code": "confirmed",
              "display": "Confirmed"
            }
          ]
        },
        "code": {
          "coding": [
            {
              "system": "http://snomed.info/sct/900000000000207008/version/20200309",
              "code": "204256004",
              "display": "Congenital pointed ear"
            }
          ]
        },
        "bodySite": [
          {
            "coding": [
              {
                "system": "http://snomed.info/sct/900000000000207008/version/20200309",
                "code": "363698007",
                "display": "Pinna structure"
              }
            ]
          }
        ],
        "subject": {
          "reference": "Patient/1373121"
        },
        "recorder": {
          "reference": "#containedPractitioner"
        }
      },
      "search": {
        "mode": "match"
      }
    },
    {
      "fullUrl": "http://hapi.fhir.org/baseR4/Condition/1373828",
      "resource": {
        "resourceType": "Condition",
        "id": "1373828",
        "meta": {
          "versionId": "1",
          "lastUpdated": "2020-07-07T12:19:07.111+00:00",
          "source": "#p02JLB39p9h0FTDv"
        },
        "verificationStatus": {
          "coding": [
            {
              "system": "http://terminology.hl7.org/CodeSystem/condition-ver-status",
              "code": "confirmed",
              "display": "Confirmed"
            }
          ]
        },
        "code": {
          "coding": [
            {
              "system": "http://snomed.info/sct",
              "code": "204256004",
              "display": "Congenital pointed ear"
            }
          ]
        },
        "subject": {
          "reference": "Patient/1373109",
          "display": "Burnham, Michael"
        }
      },
      "search": {
        "mode": "match"
      }
    },
    {
      "fullUrl": "http://hapi.fhir.org/baseR4/Condition/1373831",
      "resource": {
        "resourceType": "Condition",
        "id": "1373831",
        "meta": {
          "versionId": "1",
          "lastUpdated": "2020-07-07T12:19:59.499+00:00",
          "source": "#0oGVp5T5jCsyCQun"
        },
        "contained": [
          {
            "resourceType": "Practitioner",
            "id": "1",
            "name": [
              {
                "family": "McCoy",
                "given": [
                  "Leonard"
                ]
              }
            ]
          }
        ],
        "verificationStatus": {
          "coding": [
            {
              "system": "http://hl7.org/fhir/CodeSystem/condition-ver-status",
              "code": "confirmed",
              "display": "Confirmed"
            }
          ]
        },
        "code": {
          "coding": [
            {
              "system": "http://snomed.info/sct",
              "code": "204256004",
              "display": "Congenital pointed ear"
            }
          ]
        },
        "subject": {
          "reference": "Patient/1373132",
          "display": "Duke, Honey"
        },
        "asserter": {
          "reference": "#1"
        }
      },
      "search": {
        "mode": "match"
      }
    },
    {
      "fullUrl": "http://hapi.fhir.org/baseR4/Condition/1373834",
      "resource": {
        "resourceType": "Condition",
        "id": "1373834",
        "meta": {
          "versionId": "1",
          "lastUpdated": "2020-07-07T12:21:06.442+00:00",
          "source": "#dW86iXbhCbdjufF4"
        },
        "contained": [
          {
            "resourceType": "Practitioner",
            "id": "1",
            "name": [
              {
                "family": "McCoy"
              }
            ]
          }
        ],
        "code": {
          "coding": [
            {
              "system": "http://snomed.info/sct",
              "code": "204256004",
              "display": "Congenital pointed ear (disorder)"
            }
          ]
        },
        "subject": {
          "reference": "Patient/1173189"
        },
        "asserter": {
          "reference": "#1"
        }
      },
      "search": {
        "mode": "match"
      }
    },
    {
      "fullUrl": "http://hapi.fhir.org/baseR4/Condition/1373835",
      "resource": {
        "resourceType": "Condition",
        "id": "1373835",
        "meta": {
          "versionId": "1",
          "lastUpdated": "2020-07-07T12:21:12.263+00:00",
          "source": "#fDK7TzAqKQmbKPk4"
        },
        "verificationStatus": {
          "coding": [
            {
              "system": "http://terminology.hl7.org/CodeSystem/condition-ver-status",
              "code": "confirmed",
              "display": "Confirmed"
            }
          ]
        },
        "code": {
          "coding": [
            {
              "system": "http://snomed.info/sct",
              "code": "204256004",
              "display": "Congenital pointed ear"
            }
          ]
        },
        "subject": {
          "reference": "Patient/1373109",
          "display": "Burnham, Michael"
        }
      },
      "search": {
        "mode": "match"
      }
    },
    {
      "fullUrl": "http://hapi.fhir.org/baseR4/Condition/1373838",
      "resource": {
        "resourceType": "Condition",
        "id": "1373838",
        "meta": {
          "versionId": "1",
          "lastUpdated": "2020-07-07T12:21:51.832+00:00",
          "source": "#Qrea4Bi0dV104aS3"
        },
        "verificationStatus": {
          "coding": [
            {
              "system": "http://terminology.hl7.org/CodeSystem/condition-ver-status",
              "code": "confirmed",
              "display": "Confirmed"
            }
          ]
        },
        "code": {
          "coding": [
            {
              "system": "http://snomed.info/sct",
              "code": "204256004",
              "display": "Congenital pointed ear (disorder)"
            }
          ]
        },
        "subject": {
          "reference": "Patient/1373108",
          "display": "Franz Kafka"
        },
        "asserter": {
          "reference": "#contaiend-practitioner"
        }
      },
      "search": {
        "mode": "match"
      }
    },
    {
      "fullUrl": "http://hapi.fhir.org/baseR4/Condition/1373978",
      "resource": {
        "resourceType": "Condition",
        "id": "1373978",
        "meta": {
          "versionId": "1",
          "lastUpdated": "2020-07-07T12:48:55.365+00:00",
          "source": "#1sNr7TK4X9jkFvVD"
        },
        "contained": [
          {
            "resourceType": "Practitioner",
            "id": "contaiend-practitioner",
            "name": [
              {
                "family": "McCoy",
                "given": [
                  "Leonard"
                ],
                "prefix": [
                  "Dr."
                ]
              }
            ]
          }
        ],
        "verificationStatus": {
          "coding": [
            {
              "system": "http://terminology.hl7.org/CodeSystem/condition-ver-status",
              "code": "confirmed",
              "display": "Confirmed"
            }
          ]
        },
        "code": {
          "coding": [
            {
              "system": "http://snomed.info/sct",
              "code": "204256004",
              "display": "Congenital pointed ear (disorder)"
            }
          ]
        },
        "subject": {
          "reference": "Patient/1373108",
          "display": "Franz Kafka"
        },
        "asserter": {
          "reference": "#contaiend-practitioner"
        }
      },
      "search": {
        "mode": "match"
      }
    },
    {
      "fullUrl": "http://hapi.fhir.org/baseR4/Condition/1374078",
      "resource": {
        "resourceType": "Condition",
        "id": "1374078",
        "meta": {
          "versionId": "1",
          "lastUpdated": "2020-07-07T13:33:34.518+00:00",
          "source": "#dQJOubbSwql6v3Q0"
        },
        "text": {
          "status": "generated",
          "div": "\u003cdiv xmlns\u003d\"http://www.w3.org/1999/xhtml\"\u003eDepression\u003c/div\u003e"
        },
        "category": [
          {
            "coding": [
              {
                "system": "http://snomed.info/sct",
                "code": "14657009",
                "display": "Diagnosis"
              }
            ],
            "text": "Diagnosis"
          }
        ],
        "severity": {
          "coding": [
            {
              "system": "http://snomed.info/ct",
              "code": "6736007",
              "display": "moderate"
            }
          ],
          "text": "Moderate"
        },
        "code": {
          "coding": [
            {
              "system": "http://snomed.info/ct",
              "code": "35489007",
              "display": "depression"
            }
          ],
          "text": "depression"
        },
        "subject": {
          "reference": "Patient/1374073"
        },
        "onsetAge": {
          "value": 74,
          "system": "http://unitsofmeasure.org",
          "code": "a"
        }
      },
      "search": {
        "mode": "match"
      }
    },
    {
      "fullUrl": "http://hapi.fhir.org/baseR4/Patient/1373108",
      "resource": {
        "resourceType": "Patient",
        "id": "1373108",
        "meta": {
          "versionId": "4",
          "lastUpdated": "2020-07-07T07:38:56.353+00:00",
          "source": "#IqJPOUYdeSpbsYFO"
        },
        "text": {
          "status": "generated",
          "div": "\u003cdiv xmlns\u003d\"http://www.w3.org/1999/xhtml\"\u003e\u003cdiv class\u003d\"hapiHeaderText\"\u003eFranz \u003cb\u003eKAFKA \u003c/b\u003e\u003c/div\u003e\u003ctable class\u003d\"hapiPropertyTable\"\u003e\u003ctbody\u003e\u003ctr\u003e\u003ctd\u003eIdentifier\u003c/td\u003e\u003ctd\u003e9973264355\u003c/td\u003e\u003c/tr\u003e\u003ctr\u003e\u003ctd\u003eAddress\u003c/td\u003e\u003ctd\u003e\u003cspan\u003eTelegraphenberg 1 \u003c/span\u003e\u003cbr/\u003e\u003cspan\u003ePotsdam \u003c/span\u003e\u003cspan\u003eDE \u003c/span\u003e\u003c/td\u003e\u003c/tr\u003e\u003ctr\u003e\u003ctd\u003eDate of birth\u003c/td\u003e\u003ctd\u003e\u003cspan\u003e24 October 2226\u003c/span\u003e\u003c/td\u003e\u003c/tr\u003e\u003c/tbody\u003e\u003c/table\u003e\u003c/div\u003e"
        },
        "identifier": [
          {
            "system": "http://fhir.de/NamingSystem/gkv/kvid-10",
            "value": "9973264355"
          },
          {
            "system": "http://starfleet-hospital.ufp/NamingSystem/patient-identifier",
            "value": "NCC-1032"
          }
        ],
        "name": [
          {
            "family": "Kafka",
            "given": [
              "Franz"
            ]
          }
        ],
        "telecom": [
          {
            "system": "phone",
            "value": "+49 (0)12345 - 3333333",
            "use": "home"
          }
        ],
        "gender": "male",
        "birthDate": "2226-10-24",
        "address": [
          {
            "extension": [
              {
                "url": "http://fhir.ufp/StructureDefinition/planet",
                "valueString": "Earth"
              }
            ],
            "use": "home",
            "type": "both",
            "line": [
              "Telegraphenberg 1"
            ],
            "city": "Potsdam",
            "postalCode": "15001",
            "country": "DE"
          }
        ],
        "maritalStatus": {
          "coding": [
            {
              "system": "http://terminology.hl7.org/CodeSystem/v3-MaritalStatus",
              "code": "U"
            }
          ]
        }
      },
      "search": {
        "mode": "include"
      }
    },
    {
      "fullUrl": "http://hapi.fhir.org/baseR4/Patient/1373109",
      "resource": {
        "resourceType": "Patient",
        "id": "1373109",
        "meta": {
          "versionId": "5",
          "lastUpdated": "2020-07-07T07:23:30.943+00:00",
          "source": "#sbonbOg2NuTPBHIu"
        },
        "text": {
          "status": "generated",
          "div": "\u003cdiv xmlns\u003d\"http://www.w3.org/1999/xhtml\"\u003e\u003cdiv class\u003d\"hapiHeaderText\"\u003eMichael Knut \u003cb\u003eBURNHAM \u003c/b\u003e\u003c/div\u003e\u003ctable class\u003d\"hapiPropertyTable\"\u003e\u003ctbody\u003e\u003ctr\u003e\u003ctd\u003eIdentifier\u003c/td\u003e\u003ctd\u003e9973264355\u003c/td\u003e\u003c/tr\u003e\u003ctr\u003e\u003ctd\u003eAddress\u003c/td\u003e\u003ctd\u003e\u003cspan\u003eMilchstrasse 23 \u003c/span\u003e\u003cbr/\u003e\u003cspan\u003eSpöck \u003c/span\u003e\u003cspan\u003eDE \u003c/span\u003e\u003c/td\u003e\u003c/tr\u003e\u003ctr\u003e\u003ctd\u003eDate of birth\u003c/td\u003e\u003ctd\u003e\u003cspan\u003e24 October 2226\u003c/span\u003e\u003c/td\u003e\u003c/tr\u003e\u003c/tbody\u003e\u003c/table\u003e\u003c/div\u003e"
        },
        "identifier": [
          {
            "system": "http://fhir.de/NamingSystem/gkv/kvid-10",
            "value": "9973264355"
          },
          {
            "type": {
              "coding": [
                {
                  "system": "http://terminology.hl7.org/CodeSystem/valueString",
                  "code": "MR"
                }
              ]
            },
            "system": "http://starfleet-hospital.ufp/NamingSystem/patient-identifier",
            "value": "NCC-1032"
          }
        ],
        "name": [
          {
            "family": "Burnham",
            "given": [
              "Michael",
              "Knut"
            ]
          }
        ],
        "telecom": [
          {
            "system": "phone",
            "value": "+49 (0)12345 - 123456",
            "use": "home"
          }
        ],
        "gender": "male",
        "birthDate": "2226-10-24",
        "address": [
          {
            "extension": [
              {
                "url": "http://fhir.ufp/StructureDefinition/planet",
                "valueString": "Earth"
              }
            ],
            "use": "home",
            "type": "both",
            "line": [
              "Milchstrasse 23"
            ],
            "city": "Spöck",
            "postalCode": "76297",
            "country": "DE"
          }
        ],
        "maritalStatus": {
          "coding": [
            {
              "system": "http://terminology.hl7.org/CodeSystem/v3-MaritalStatus",
              "code": "U"
            }
          ]
        }
      },
      "search": {
        "mode": "include"
      }
    },
    {
      "fullUrl": "http://hapi.fhir.org/baseR4/Patient/1373111",
      "resource": {
        "resourceType": "Patient",
        "id": "1373111",
        "meta": {
          "versionId": "4",
          "lastUpdated": "2020-07-07T11:29:08.900+00:00",
          "source": "#TxmrMcFTcZm8fkT6"
        },
        "text": {
          "status": "generated",
          "div": "\u003cdiv xmlns\u003d\"http://www.w3.org/1999/xhtml\"\u003e\u003cdiv class\u003d\"hapiHeaderText\"\u003eWhat The F**k \u003cb\u003eDR. WHO \u003c/b\u003e\u003c/div\u003e\u003ctable class\u003d\"hapiPropertyTable\"\u003e\u003ctbody\u003e\u003ctr\u003e\u003ctd\u003eIdentifier\u003c/td\u003e\u003ctd\u003eNCC-1032\u003c/td\u003e\u003c/tr\u003e\u003ctr\u003e\u003ctd\u003eAddress\u003c/td\u003e\u003ctd\u003e\u003cspan\u003eMilchstraße 42 \u003c/span\u003e\u003cbr/\u003e\u003cspan\u003eSpöck \u003c/span\u003e\u003cspan\u003eDeutschland \u003c/span\u003e\u003c/td\u003e\u003c/tr\u003e\u003ctr\u003e\u003ctd\u003eDate of birth\u003c/td\u003e\u003ctd\u003e\u003cspan\u003e09 September 1999\u003c/span\u003e\u003c/td\u003e\u003c/tr\u003e\u003c/tbody\u003e\u003c/table\u003e\u003c/div\u003e"
        },
        "identifier": [
          {
            "type": {
              "coding": [
                {
                  "system": "http://terminologien-hl7.org/CodeSystem/v2-0203",
                  "code": "MR"
                }
              ]
            },
            "system": "http://starfleet-hospital.ufp/NamingSystem/fhir/patient-identifier",
            "value": "NCC-1032"
          },
          {
            "system": "http://fhir.de/NamingSystem/gkv/kvid-10",
            "value": "9973264355"
          }
        ],
        "name": [
          {
            "family": "Dr. Who",
            "given": [
              "What",
              "The F**k"
            ]
          }
        ],
        "gender": "female",
        "birthDate": "1999-09-09",
        "address": [
          {
            "extension": [
              {
                "url": "http://fhir.ufp/StructureDefinition/planet",
                "valueString": "Erde"
              }
            ],
            "line": [
              "Milchstraße 42"
            ],
            "city": "Spöck",
            "postalCode": "76297",
            "country": "Deutschland"
          }
        ],
        "maritalStatus": {
          "coding": [
            {
              "system": "http://terminology.hl7.org/CodeSystem/v3-MaritalStatus",
              "code": "U",
              "display": "unmarried"
            }
          ]
        }
      },
      "search": {
        "mode": "include"
      }
    },
    {
      "fullUrl": "http://hapi.fhir.org/baseR4/Patient/1173189",
      "resource": {
        "resourceType": "Patient",
        "id": "1173189",
        "meta": {
          "versionId": "2",
          "lastUpdated": "2020-07-07T11:41:43.021+00:00",
          "source": "#TiAE8SRwPOLcf41u"
        },
        "text": {
          "status": "generated",
          "div": "\u003cdiv xmlns\u003d\"http://www.w3.org/1999/xhtml\"\u003e\u003cdiv class\u003d\"hapiHeaderText\"\u003eFranz \u003cb\u003eHUMMEL \u003c/b\u003e\u003c/div\u003e\u003ctable class\u003d\"hapiPropertyTable\"\u003e\u003ctbody\u003e\u003ctr\u003e\u003ctd\u003eIdentifier\u003c/td\u003e\u003ctd\u003e9973264355\u003c/td\u003e\u003c/tr\u003e\u003ctr\u003e\u003ctd\u003eAddress\u003c/td\u003e\u003ctd\u003e\u003cspan\u003eBurggasse 1 \u003c/span\u003e\u003cbr/\u003e\u003cspan\u003eFreiburg \u003c/span\u003e\u003cspan\u003eDE \u003c/span\u003e\u003c/td\u003e\u003c/tr\u003e\u003ctr\u003e\u003ctd\u003eDate of birth\u003c/td\u003e\u003ctd\u003e\u003cspan\u003e24 October 1990\u003c/span\u003e\u003c/td\u003e\u003c/tr\u003e\u003c/tbody\u003e\u003c/table\u003e\u003c/div\u003e"
        },
        "identifier": [
          {
            "system": "http://fhir.de/NamingSystem/gkv/kvid-10",
            "value": "9973264355"
          },
          {
            "system": "http://starfleet-hospital.ufp/NamingSystem/patient-identifier",
            "value": "NCC-1032"
          }
        ],
        "name": [
          {
            "family": "Hummel",
            "given": [
              "Franz"
            ]
          }
        ],
        "telecom": [
          {
            "system": "phone",
            "value": "+49 (0)12345 - 3333333",
            "use": "home"
          }
        ],
        "gender": "male",
        "birthDate": "1990-10-24",
        "address": [
          {
            "extension": [
              {
                "url": "http://fhir.ufp/StructureDefinition/planet",
                "valueString": "Earth"
              }
            ],
            "use": "home",
            "type": "both",
            "line": [
              "Burggasse 1"
            ],
            "city": "Freiburg",
            "postalCode": "15001",
            "country": "DE"
          }
        ],
        "maritalStatus": {
          "coding": [
            {
              "system": "http://terminology.hl7.org/CodeSystem/v3-MaritalStatus",
              "code": "U"
            }
          ]
        }
      },
      "search": {
        "mode": "include"
      }
    },
    {
      "fullUrl": "http://hapi.fhir.org/baseR4/Patient/1373121",
      "resource": {
        "resourceType": "Patient",
        "id": "1373121",
        "meta": {
          "versionId": "1",
          "lastUpdated": "2020-07-07T07:14:23.501+00:00",
          "source": "#tgJYMVAOVsVhkcjd"
        },
        "text": {
          "status": "generated",
          "div": "\u003cdiv xmlns\u003d\"http://www.w3.org/1999/xhtml\"\u003e\u003cdiv class\u003d\"hapiHeaderText\"\u003eWayne \u003cb\u003eBRUCE \u003c/b\u003e\u003c/div\u003e\u003ctable class\u003d\"hapiPropertyTable\"\u003e\u003ctbody\u003e\u003ctr\u003e\u003ctd\u003eIdentifier\u003c/td\u003e\u003ctd\u003e9973264355\u003c/td\u003e\u003c/tr\u003e\u003ctr\u003e\u003ctd\u003eAddress\u003c/td\u003e\u003ctd\u003e\u003cspan\u003eBatcave \u003c/span\u003e\u003cbr/\u003e\u003cspan\u003eGotham \u003c/span\u003e\u003cspan\u003eUS \u003c/span\u003e\u003c/td\u003e\u003c/tr\u003e\u003ctr\u003e\u003ctd\u003eDate of birth\u003c/td\u003e\u003ctd\u003e\u003cspan\u003e30 March 1939\u003c/span\u003e\u003c/td\u003e\u003c/tr\u003e\u003c/tbody\u003e\u003c/table\u003e\u003c/div\u003e"
        },
        "identifier": [
          {
            "fhir_comments": [
              " Identifier 1: GKV-ID "
            ],
            "type": {
              "coding": [
                {
                  "system": "http://fhir.de/CodeSystem/identifier-type-de-basis",
                  "code": "GKV"
                }
              ]
            },
            "system": "http://fhir.de/NamingSystem/gkv/kvid-10",
            "value": "9973264355"
          },
          {
            "fhir_comments": [
              " Identifier 2: Patienten-ID "
            ],
            "use": "usual",
            "type": {
              "coding": [
                {
                  "system": "http://terminology.hl7.org/CodeSystem/v2-0203",
                  "code": "MR"
                }
              ]
            },
            "system": "https://fhir.starfleet-hospital.ufp/NamingSystem/patient-identifier",
            "value": "NCC-1032"
          }
        ],
        "active": true,
        "name": [
          {
            "fhir_comments": [
              " \"Eigentliche Daten\" "
            ],
            "use": "official",
            "family": "Bruce",
            "given": [
              "Wayne"
            ]
          }
        ],
        "telecom": [
          {
            "system": "phone",
            "value": "+1 12345 - 123456",
            "use": "home"
          }
        ],
        "gender": "male",
        "birthDate": "1939-03-30",
        "address": [
          {
            "extension": [
              {
                "url": "http://fhir.ufp/StructureDefinition/planet",
                "valueString": "Earth"
              }
            ],
            "use": "home",
            "line": [
              "Batcave"
            ],
            "city": "Gotham",
            "postalCode": "99999",
            "country": "US"
          }
        ],
        "maritalStatus": {
          "coding": [
            {
              "system": "http://terminology.hl7.org/CodeSystem/v3-MaritalStatus",
              "code": "U"
            }
          ]
        }
      },
      "search": {
        "mode": "include"
      }
    },
    {
      "fullUrl": "http://hapi.fhir.org/baseR4/Patient/1373106",
      "resource": {
        "resourceType": "Patient",
        "id": "1373106",
        "meta": {
          "versionId": "1",
          "lastUpdated": "2020-07-07T07:08:23.405+00:00",
          "source": "#aZMgzTAvHYo4I2sg"
        },
        "text": {
          "status": "generated",
          "div": "\u003cdiv xmlns\u003d\"http://www.w3.org/1999/xhtml\"\u003e\u003cdiv class\u003d\"hapiHeaderText\"\u003eSimone Maria \u003cb\u003eHECKMANN \u003c/b\u003e\u003c/div\u003e\u003ctable class\u003d\"hapiPropertyTable\"\u003e\u003ctbody\u003e\u003ctr\u003e\u003ctd\u003eIdentifier\u003c/td\u003e\u003ctd\u003eNCC-1032\u003c/td\u003e\u003c/tr\u003e\u003ctr\u003e\u003ctd\u003eAddress\u003c/td\u003e\u003ctd\u003e\u003cspan\u003eMilchstr. 42 \u003c/span\u003e\u003cbr/\u003e\u003cspan\u003eSpöck \u003c/span\u003e\u003cspan\u003eDeutschland \u003c/span\u003e\u003c/td\u003e\u003c/tr\u003e\u003ctr\u003e\u003ctd\u003eDate of birth\u003c/td\u003e\u003ctd\u003e\u003cspan\u003e02 September 1980\u003c/span\u003e\u003c/td\u003e\u003c/tr\u003e\u003c/tbody\u003e\u003c/table\u003e\u003c/div\u003e"
        },
        "identifier": [
          {
            "type": {
              "coding": [
                {
                  "system": "http://terminology.hl7.org/CodeSystem/v2-0203",
                  "code": "MR"
                }
              ]
            },
            "system": "http://starfleet-hospital.ufp/fhir/NamingSystem/patient-identifier",
            "value": "NCC-1032"
          },
          {
            "type": {
              "coding": [
                {
                  "system": "http://fhir.de/CodeSystem/identifier-type-de-basis",
                  "code": "GKV"
                }
              ]
            },
            "system": "http://fhir.de/NamingSystem/gkv/kvid-10",
            "value": "9973264355"
          }
        ],
        "name": [
          {
            "family": "Heckmann",
            "given": [
              "Simone",
              "Maria"
            ]
          }
        ],
        "gender": "female",
        "birthDate": "1980-09-02",
        "address": [
          {
            "extension": [
              {
                "url": "http://fhir.ufp/StructureDefinition/planet",
                "valueString": "Erde"
              }
            ],
            "line": [
              "Milchstr. 42"
            ],
            "city": "Spöck",
            "postalCode": "76297",
            "country": "Deutschland"
          }
        ]
      },
      "search": {
        "mode": "include"
      }
    },
    {
      "fullUrl": "http://hapi.fhir.org/baseR4/Patient/1373107",
      "resource": {
        "resourceType": "Patient",
        "id": "1373107",
        "meta": {
          "versionId": "4",
          "lastUpdated": "2020-07-07T07:23:45.479+00:00",
          "source": "#tjmGN1zXyOdG2H4x"
        },
        "text": {
          "status": "generated",
          "div": "\u003cdiv xmlns\u003d\"http://www.w3.org/1999/xhtml\"\u003e\u003cdiv class\u003d\"hapiHeaderText\"\u003eLena \u003cb\u003eBURNHAM \u003c/b\u003e\u003c/div\u003e\u003ctable class\u003d\"hapiPropertyTable\"\u003e\u003ctbody\u003e\u003ctr\u003e\u003ctd\u003eIdentifier\u003c/td\u003e\u003ctd\u003eNCC-1032\u003c/td\u003e\u003c/tr\u003e\u003ctr\u003e\u003ctd\u003eAddress\u003c/td\u003e\u003ctd\u003e\u003cspan\u003eMilchstr. 42 \u003c/span\u003e\u003cbr/\u003e\u003cspan\u003eSpöck \u003c/span\u003e\u003cspan\u003eDeutschland \u003c/span\u003e\u003c/td\u003e\u003c/tr\u003e\u003ctr\u003e\u003ctd\u003eDate of birth\u003c/td\u003e\u003ctd\u003e\u003cspan\u003e07 June 2020\u003c/span\u003e\u003c/td\u003e\u003c/tr\u003e\u003c/tbody\u003e\u003c/table\u003e\u003c/div\u003e"
        },
        "identifier": [
          {
            "type": {
              "coding": [
                {
                  "system": "http://terminology.hl7.org/CodeSystem/v2-0203",
                  "code": "MR"
                }
              ]
            },
            "system": "http://starfleet-hospital.ufp/fhir/NamingSystem/patient-identifier",
            "value": "NCC-1032"
          },
          {
            "system": "http://fhir.de/NamingSystem/gkv/kvid-10",
            "value": "9973264355"
          }
        ],
        "name": [
          {
            "family": "Burnham",
            "given": [
              "Lena"
            ]
          }
        ],
        "gender": "female",
        "birthDate": "2020-06-07",
        "address": [
          {
            "extension": [
              {
                "url": "http://fhir.ufp/StructureDefinition/planet",
                "valueString": "Erde"
              }
            ],
            "line": [
              "Milchstr. 42"
            ],
            "city": "Spöck",
            "postalCode": "76297",
            "country": "Deutschland"
          }
        ]
      },
      "search": {
        "mode": "include"
      }
    },
    {
      "fullUrl": "http://hapi.fhir.org/baseR4/Patient/1373116",
      "resource": {
        "resourceType": "Patient",
        "id": "1373116",
        "meta": {
          "versionId": "2",
          "lastUpdated": "2020-07-07T07:18:49.305+00:00",
          "source": "#9xRJUzQRcpHLRZk4"
        },
        "text": {
          "status": "generated",
          "div": "\u003cdiv xmlns\u003d\"http://www.w3.org/1999/xhtml\"\u003e\u003cdiv class\u003d\"hapiHeaderText\"\u003eMichaela \u003cb\u003eFUCHSIA \u003c/b\u003e\u003c/div\u003e\u003ctable class\u003d\"hapiPropertyTable\"\u003e\u003ctbody\u003e\u003ctr\u003e\u003ctd\u003eIdentifier\u003c/td\u003e\u003ctd\u003e9912345678\u003c/td\u003e\u003c/tr\u003e\u003ctr\u003e\u003ctd\u003eAddress\u003c/td\u003e\u003ctd\u003e\u003cspan\u003eMilchstrasse 42 \u003c/span\u003e\u003cbr/\u003e\u003cspan\u003eSpöck \u003c/span\u003e\u003cspan\u003eDE \u003c/span\u003e\u003c/td\u003e\u003c/tr\u003e\u003ctr\u003e\u003ctd\u003eDate of birth\u003c/td\u003e\u003ctd\u003e\u003cspan\u003e24 October 2226\u003c/span\u003e\u003c/td\u003e\u003c/tr\u003e\u003c/tbody\u003e\u003c/table\u003e\u003c/div\u003e"
        },
        "identifier": [
          {
            "system": "http://fhir.de/NamingSystem/gkv/kvid-10",
            "value": "9912345678"
          },
          {
            "system": "http://starfleet-hospital.ufp/NamingSystem/patient-identifier",
            "value": "NCC-9999"
          }
        ],
        "name": [
          {
            "family": "Fuchsia",
            "given": [
              "Finja"
            ]
          }
        ],
        "telecom": [
          {
            "system": "phone",
            "value": "+49 (0)12345 - 123456",
            "use": "home"
          }
        ],
        "birthDate": "2000-01-01",
        "address": [
          {
            "extension": [
              {
                "url": "http://fhir.ufp/StructureDefinition/planet",
                "valueString": "Earth"
              }
            ],
            "use": "home",
            "type": "both",
            "line": [
              "Fuchsbau 11"
            ],
            "city": "Fuchshausen",
            "postalCode": "00000",
            "country": "DE"
          }
        ],
        "maritalStatus": {
          "coding": [
            {
              "system": "http://terminology.hl7.org/CodeSystem/v3-MaritalStatus",
              "code": "U"
            }
          ]
        }
      },
      "search": {
        "mode": "include"
      }
    },
    {
      "fullUrl": "http://hapi.fhir.org/baseR4/Patient/1373132",
      "resource": {
        "resourceType": "Patient",
        "id": "1373132",
        "meta": {
          "versionId": "6",
          "lastUpdated": "2020-07-07T07:28:17.419+00:00",
          "source": "#dy9GETfBPrsdasCE"
        },
        "text": {
          "status": "generated",
          "div": "\u003cdiv xmlns\u003d\"http://www.w3.org/1999/xhtml\"\u003e\u003cdiv class\u003d\"hapiHeaderText\"\u003eDuke \u003cb\u003eHONEY \u003c/b\u003e\u003c/div\u003e\u003ctable class\u003d\"hapiPropertyTable\"\u003e\u003ctbody\u003e\u003ctr\u003e\u003ctd\u003eIdentifier\u003c/td\u003e\u003ctd\u003e9973264355\u003c/td\u003e\u003c/tr\u003e\u003ctr\u003e\u003ctd\u003eAddress\u003c/td\u003e\u003ctd\u003e\u003cspan\u003eMilchstrasse 42 \u003c/span\u003e\u003cbr/\u003e\u003cspan\u003eSpöck \u003c/span\u003e\u003cspan\u003eDE \u003c/span\u003e\u003c/td\u003e\u003c/tr\u003e\u003ctr\u003e\u003ctd\u003eDate of birth\u003c/td\u003e\u003ctd\u003e\u003cspan\u003e24 October 2000\u003c/span\u003e\u003c/td\u003e\u003c/tr\u003e\u003c/tbody\u003e\u003c/table\u003e\u003c/div\u003e"
        },
        "identifier": [
          {
            "system": "http://fhir.de/NamingSystem/gkv/kvid-10",
            "value": "9973264355"
          },
          {
            "system": "http://starfleet-hospital.ufp/NamingSystem/patient-identifier",
            "value": "NCC-1032"
          }
        ],
        "name": [
          {
            "family": "Honey",
            "given": [
              "Duke"
            ]
          }
        ],
        "telecom": [
          {
            "system": "phone",
            "value": "+49 (0)12345 - 123456",
            "use": "home"
          }
        ],
        "birthDate": "2000-10-24",
        "address": [
          {
            "extension": [
              {
                "url": "http://fhir.ufp/StructureDefinition/planet",
                "valueString": "Earth"
              }
            ],
            "use": "home",
            "type": "both",
            "line": [
              "Milchstrasse 42"
            ],
            "city": "Spöck",
            "postalCode": "76297",
            "country": "DE"
          }
        ],
        "maritalStatus": {
          "coding": [
            {
              "system": "http://terminology.hl7.org/CodeSystem/v3-MaritalStatus",
              "code": "U"
            }
          ]
        }
      },
      "search": {
        "mode": "include"
      }
    },
    {
      "fullUrl": "http://hapi.fhir.org/baseR4/Patient/1373135",
      "resource": {
        "resourceType": "Patient",
        "id": "1373135",
        "meta": {
          "versionId": "2",
          "lastUpdated": "2020-07-07T07:21:59.044+00:00",
          "source": "#gJcvenQuXT6KYoti"
        },
        "text": {
          "status": "generated",
          "div": "\u003cdiv xmlns\u003d\"http://www.w3.org/1999/xhtml\"\u003e\u003cdiv class\u003d\"hapiHeaderText\"\u003eStar \u003cb\u003ePATRICK \u003c/b\u003e\u003c/div\u003e\u003ctable class\u003d\"hapiPropertyTable\"\u003e\u003ctbody\u003e\u003ctr\u003e\u003ctd\u003eIdentifier\u003c/td\u003e\u003ctd\u003e9973264355\u003c/td\u003e\u003c/tr\u003e\u003ctr\u003e\u003ctd\u003eAddress\u003c/td\u003e\u003ctd\u003e\u003cspan\u003eMilchstrasse 42 \u003c/span\u003e\u003cbr/\u003e\u003cspan\u003eSpöck \u003c/span\u003e\u003cspan\u003eDE \u003c/span\u003e\u003c/td\u003e\u003c/tr\u003e\u003ctr\u003e\u003ctd\u003eDate of birth\u003c/td\u003e\u003ctd\u003e\u003cspan\u003e24 October 2226\u003c/span\u003e\u003c/td\u003e\u003c/tr\u003e\u003c/tbody\u003e\u003c/table\u003e\u003c/div\u003e"
        },
        "identifier": [
          {
            "system": "http://fhir.de/NamingSystem/gkv/kvid-10",
            "value": "9973264355"
          },
          {
            "system": "http://starfleet-hospital.ufp/NamingSystem/patient-identifier",
            "value": "NCC-1032"
          }
        ],
        "name": [
          {
            "family": "Patrick",
            "given": [
              "Star"
            ]
          }
        ],
        "telecom": [
          {
            "system": "phone",
            "value": "+49 (0)12345 - 123456",
            "use": "home"
          }
        ],
        "gender": "male",
        "birthDate": "2226-10-24",
        "address": [
          {
            "extension": [
              {
                "url": "http://fhir.ufp/StructureDefinition/planet",
                "valueString": "Earth"
              }
            ],
            "use": "home",
            "type": "both",
            "line": [
              "Milchstrasse 42"
            ],
            "city": "Spöck",
            "postalCode": "76297",
            "country": "DE"
          }
        ],
        "maritalStatus": {
          "coding": [
            {
              "system": "http://terminology.hl7.org/CodeSystem/v3-MaritalStatus",
              "code": "U"
            }
          ]
        }
      },
      "search": {
        "mode": "include"
      }
    },
    {
      "fullUrl": "http://hapi.fhir.org/baseR4/Patient/1374073",
      "resource": {
        "resourceType": "Patient",
        "id": "1374073",
        "meta": {
          "versionId": "1",
          "lastUpdated": "2020-07-07T13:33:33.121+00:00",
          "source": "#yEH6E7LVZfxAZYBi"
        },
        "text": {
          "status": "generated",
          "div": "\u003cdiv xmlns\u003d\"http://www.w3.org/1999/xhtml\"\u003eEvelyn Roberts\u003c/div\u003e"
        },
        "name": [
          {
            "use": "official",
            "text": "Evelyn Roberts",
            "family": "Roberts",
            "given": [
              "Evelyn"
            ]
          }
        ],
        "gender": "female",
        "birthDate": "2020-07-07"
      },
      "search": {
        "mode": "include"
      }
    }
  ]
}