{
  "resourceType": "Bundle",
  "id": "b3ad5efb-e3ac-417a-8bdd-01c2c84cdaba",
  "meta": {
    "lastUpdated": "2021-01-05T10:07:19.195+00:00"
  },
  "type": "searchset",
  "link": [
    {
      "relation": "self",
      "url": "http://hapi.fhir.org/baseR4?_getpages\u003db3ad5efb-e3ac-417a-8bdd-01c2c84cdaba\u0026_getpagesoffset\u003d40\u0026_count\u003d20\u0026_format\u003djson\u0026_pretty\u003dtrue\u0026_bundletype\u003dsearchset"
    },
    {
      "relation": "next",
      "url": "http://hapi.fhir.org/baseR4?_getpages\u003db3ad5efb-e3ac-417a-8bdd-01c2c84cdaba\u0026_getpagesoffset\u003d60\u0026_count\u003d20\u0026_format\u003djson\u0026_pretty\u003dtrue\u0026_bundletype\u003dsearchset"
    },
    {
      "relation": "previous",
      "url": "http://hapi.fhir.org/baseR4?_getpages\u003db3ad5efb-e3ac-417a-8bdd-01c2c84cdaba\u0026_getpagesoffset\u003d20\u0026_count\u003d20\u0026_format\u003djson\u0026_pretty\u003dtrue\u0026_bundletype\u003dsearchset"
    }
  ],
  "entry": [
    {
      "fullUrl": "http://hapi.fhir.org/baseR4/Condition/1369360",
      "resource": {
        "resourceType": "Condition",
        "id": "1369360",
        "meta": {
          "versionId": "1",
          "lastUpdated": "2020-07-04T13:26:38.071+00:00",
          "source": "#qBeiHkHPEm4oVCTw"
        },
        "text": {
          "status": "generated",
          "div": "\u003cdiv xmlns\u003d\"http://www.w3.org/1999/xhtml\"\u003eOnychomycosis\u003c/div\u003e"
        },
        "category": [
          {
            "coding": [
              {
                "system": "http://snomed.info/sct",
                "code": "14657009",
                "display": "Diagnosis"
              }
            ],
            "text": "Diagnosis"
          }
        ],
        "severity": {
          "coding": [
            {
              "system": "http://snomed.info/ct",
              "code": "24484000",
              "display": "severe"
            }
          ],
          "text": "severe"
        },
        "code": {
          "coding": [
            {
              "system": "http://snomed.info/ct",
              "code": "414941998",
              "display": "onychomycosis"
            }
          ],
          "text": "onychomycosis"
        },
        "subject": {
          "reference": "Patient/1369349"
        },
        "onsetAge": {
          "value": 77,
          "system": "http://unitsofmeasure.org",
          "code": "a"
        }
      },
      "search": {
        "mode": "match"
      }
    },
    {
      "fullUrl": "http://hapi.fhir.org/baseR4/Condition/1369355",
      "resource": {
        "resourceType": "Condition",
        "id": "1369355",
        "meta": {
          "versionId": "1",
          "lastUpdated": "2020-07-04T13:26:38.071+00:00",
          "source": "#qBeiHkHPEm4oVCTw"
        },
        "text": {
          "status": "generated",
          "div": "\u003cdiv xmlns\u003d\"http://www.w3.org/1999/xhtml\"\u003eNeuropathic pain\u003c/div\u003e"
        },
        "category": [
          {
            "coding": [
              {
                "system": "http://snomed.info/sct",
                "code": "14657009",
                "display": "Diagnosis"
              }
            ],
            "text": "Diagnosis"
          }
        ],
        "severity": {
          "coding": [
            {
              "system": "http://snomed.info/ct",
              "code": "6736007",
              "display": "moderate"
            }
          ],
          "text": "moderate"
        },
        "code": {
          "coding": [
            {
              "system": "http://snomed.info/ct",
              "code": "247389009",
              "display": "neuropathic pain"
            }
          ],
          "text": "neuropathic pain"
        },
        "subject": {
          "reference": "Patient/1369349"
        },
        "onsetAge": {
          "value": 75,
          "system": "http://unitsofmeasure.org",
          "code": "a"
        }
      },
      "search": {
        "mode": "match"
      }
    },
    {
      "fullUrl": "http://hapi.fhir.org/baseR4/Condition/1369354",
      "resource": {
        "resourceType": "Condition",
        "id": "1369354",
        "meta": {
          "versionId": "1",
          "lastUpdated": "2020-07-04T13:26:38.071+00:00",
          "source": "#qBeiHkHPEm4oVCTw"
        },
        "text": {
          "status": "generated",
          "div": "\u003cdiv xmlns\u003d\"http://www.w3.org/1999/xhtml\"\u003eDepression\u003c/div\u003e"
        },
        "category": [
          {
            "coding": [
              {
                "system": "http://snomed.info/sct",
                "code": "14657009",
                "display": "Diagnosis"
              }
            ],
            "text": "Diagnosis"
          }
        ],
        "severity": {
          "coding": [
            {
              "system": "http://snomed.info/ct",
              "code": "6736007",
              "display": "moderate"
            }
          ],
          "text": "Moderate"
        },
        "code": {
          "coding": [
            {
              "system": "http://snomed.info/ct",
              "code": "35489007",
              "display": "depression"
            }
          ],
          "text": "depression"
        },
        "subject": {
          "reference": "Patient/1369349"
        },
        "onsetAge": {
          "value": 74,
          "system": "http://unitsofmeasure.org",
          "code": "a"
        }
      },
      "search": {
        "mode": "match"
      }
    },
    {
      "fullUrl": "http://hapi.fhir.org/baseR4/Condition/1369353",
      "resource": {
        "resourceType": "Condition",
        "id": "1369353",
        "meta": {
          "versionId": "1",
          "lastUpdated": "2020-07-04T13:26:38.071+00:00",
          "source": "#qBeiHkHPEm4oVCTw"
        },
        "text": {
          "status": "generated",
          "div": "\u003cdiv xmlns\u003d\"http://www.w3.org/1999/xhtml\"\u003eHypertension\u003c/div\u003e"
        },
        "category": [
          {
            "coding": [
              {
                "system": "http://snomed.info/sct",
                "code": "14657009",
                "display": "Diagnosis"
              }
            ],
            "text": "Diagnosis"
          }
        ],
        "severity": {
          "coding": [
            {
              "system": "http://snomed.info/ct",
              "code": "255604002",
              "display": "mild"
            }
          ],
          "text": "Mild"
        },
        "code": {
          "coding": [
            {
              "system": "http://snomed.info/ct",
              "code": "38341003",
              "display": "hypertension"
            }
          ],
          "text": "hypertension"
        },
        "subject": {
          "reference": "Patient/1369349"
        },
        "onsetAge": {
          "value": 68,
          "system": "http://unitsofmeasure.org",
          "code": "a"
        }
      },
      "search": {
        "mode": "match"
      }
    },
    {
      "fullUrl": "http://hapi.fhir.org/baseR4/Condition/1369352",
      "resource": {
        "resourceType": "Condition",
        "id": "1369352",
        "meta": {
          "versionId": "1",
          "lastUpdated": "2020-07-04T13:26:38.071+00:00",
          "source": "#qBeiHkHPEm4oVCTw"
        },
        "text": {
          "status": "generated",
          "div": "\u003cdiv xmlns\u003d\"http://www.w3.org/1999/xhtml\"\u003eDiabetes\u003c/div\u003e"
        },
        "category": [
          {
            "coding": [
              {
                "system": "http://snomed.info/sct",
                "code": "14657009",
                "display": "Diagnosis"
              }
            ],
            "text": "Diagnosis"
          }
        ],
        "severity": {
          "coding": [
            {
              "system": "http://snomed.info/ct",
              "code": "6736007",
              "display": "moderate"
            }
          ],
          "text": "moderate"
        },
        "code": {
          "coding": [
            {
              "system": "http://snomed.info/ct",
              "code": "73211009",
              "display": "diabetes"
            }
          ],
          "text": "diabetes"
        },
        "subject": {
          "reference": "Patient/1369349"
        },
        "onsetAge": {
          "value": 60,
          "system": "http://unitsofmeasure.org",
          "code": "a"
        }
      },
      "search": {
        "mode": "match"
      }
    },
    {
      "fullUrl": "http://hapi.fhir.org/baseR4/Condition/1369359",
      "resource": {
        "resourceType": "Condition",
        "id": "1369359",
        "meta": {
          "versionId": "1",
          "lastUpdated": "2020-07-04T13:26:38.071+00:00",
          "source": "#qBeiHkHPEm4oVCTw"
        },
        "text": {
          "status": "generated",
          "div": "\u003cdiv xmlns\u003d\"http://www.w3.org/1999/xhtml\"\u003eHypercholesterolaemia\u003c/div\u003e"
        },
        "category": [
          {
            "coding": [
              {
                "system": "http://snomed.info/sct",
                "code": "14657009",
                "display": "Diagnosis"
              }
            ],
            "text": "Diagnosis"
          }
        ],
        "severity": {
          "coding": [
            {
              "system": "http://snomed.info/ct",
              "code": "6736007",
              "display": "moderate"
            }
          ],
          "text": "Moderate"
        },
        "code": {
          "coding": [
            {
              "system": "http://snomed.info/ct",
              "code": "13644009",
              "display": "high cholesterol"
            }
          ],
          "text": "high cholesterol"
        },
        "subject": {
          "reference": "Patient/1369349"
        },
        "onsetAge": {
          "value": 68,
          "system": "http://unitsofmeasure.org",
          "code": "a"
        }
      },
      "search": {
        "mode": "match"
      }
    },
    {
      "fullUrl": "http://hapi.fhir.org/baseR4/Condition/1369358",
      "resource": {
        "resourceType": "Condition",
        "id": "1369358",
        "meta": {
          "versionId": "1",
          "lastUpdated": "2020-07-04T13:26:38.071+00:00",
          "source": "#qBeiHkHPEm4oVCTw"
        },
        "text": {
          "status": "generated",
          "div": "\u003cdiv xmlns\u003d\"http://www.w3.org/1999/xhtml\"\u003eGERD\u003c/div\u003e"
        },
        "category": [
          {
            "coding": [
              {
                "system": "http://snomed.info/sct",
                "code": "14657009",
                "display": "Diagnosis"
              }
            ],
            "text": "Diagnosis"
          }
        ],
        "severity": {
          "coding": [
            {
              "system": "http://snomed.info/ct",
              "code": "6736007",
              "display": "moderate"
            }
          ],
          "text": "Moderate"
        },
        "code": {
          "coding": [
            {
              "system": "http://snomed.info/ct",
              "code": "235595009",
              "display": "GERD"
            }
          ],
          "text": "GERD"
        },
        "subject": {
          "reference": "Patient/1369349"
        },
        "onsetAge": {
          "value": 66,
          "system": "http://unitsofmeasure.org",
          "code": "a"
        }
      },
      "search": {
        "mode": "match"
      }
    },
    {
      "fullUrl": "http://hapi.fhir.org/baseR4/Condition/1369357",
      "resource": {
        "resourceType": "Condition",
        "id": "1369357",
        "meta": {
          "versionId": "1",
          "lastUpdated": "2020-07-04T13:26:38.071+00:00",
          "source": "#qBeiHkHPEm4oVCTw"
        },
        "text": {
          "status": "generated",
          "div": "\u003cdiv xmlns\u003d\"http://www.w3.org/1999/xhtml\"\u003eRheumatoid arthritis - left elbow\u003c/div\u003e"
        },
        "category": [
          {
            "coding": [
              {
                "system": "http://snomed.info/sct",
                "code": "14657009",
                "display": "Diagnosis"
              }
            ],
            "text": "Diagnosis"
          }
        ],
        "severity": {
          "coding": [
            {
              "system": "http://snomed.info/ct",
              "code": "6736007",
              "display": "mild to moderate"
            }
          ],
          "text": "Diagnosis"
        },
        "code": {
          "coding": [
            {
              "system": "http://snomed.info/ct",
              "code": "69896004",
              "display": "rheumatoid arthritis"
            }
          ],
          "text": "rheumatoid arthritis - left elbow"
        },
        "subject": {
          "reference": "Patient/1369349"
        },
        "onsetAge": {
          "value": 74,
          "system": "http://unitsofmeasure.org",
          "code": "a"
        },
        "evidence": [
          {
            "code": [
              {
                "coding": [
                  {
                    "system": "http://snomed.info/ct",
                    "code": "57676002",
                    "display": "Painful Joint"
                  }
                ],
                "text": "Painful joint"
              }
            ]
          }
        ]
      },
      "search": {
        "mode": "match"
      }
    },
    {
      "fullUrl": "http://hapi.fhir.org/baseR4/Condition/1369356",
      "resource": {
        "resourceType": "Condition",
        "id": "1369356",
        "meta": {
          "versionId": "1",
          "lastUpdated": "2020-07-04T13:26:38.071+00:00",
          "source": "#qBeiHkHPEm4oVCTw"
        },
        "text": {
          "status": "generated",
          "div": "\u003cdiv xmlns\u003d\"http://www.w3.org/1999/xhtml\"\u003eRheumatoid Arthritis\u003c/div\u003e"
        },
        "category": [
          {
            "coding": [
              {
                "system": "http://snomed.info/sct",
                "code": "14657009",
                "display": "Diagnosis"
              }
            ],
            "text": "Diagnosis"
          }
        ],
        "severity": {
          "coding": [
            {
              "system": "http://snomed.info/ct",
              "code": "6736007",
              "display": "moderate"
            }
          ],
          "text": "Moderate"
        },
        "code": {
          "coding": [
            {
              "system": "http://snomed.info/ct",
              "code": "69896004",
              "display": "rheumatoid arthritis"
            }
          ],
          "text": "rheumatoid arthritis - both hands"
        },
        "bodySite": [
          {
            "coding": [
              {
                "system": "http://snomed.info/ct",
                "code": "12861001",
                "display": "both hands"
              }
            ],
            "text": "both hands"
          }
        ],
        "subject": {
          "reference": "Patient/1369349"
        },
        "onsetAge": {
          "value": 72,
          "system": "http://unitsofmeasure.org",
          "code": "a"
        },
        "evidence": [
          {
            "code": [
              {
                "coding": [
                  {
                    "system": "http://snomed.info/ct",
                    "code": "57676002",
                    "display": "Painful Joint"
                  }
                ],
                "text": "Painful joint"
              }
            ]
          }
        ]
      },
      "search": {
        "mode": "match"
      }
    },
    {
      "fullUrl": "http://hapi.fhir.org/baseR4/Condition/1369518",
      "resource": {
        "resourceType": "Condition",
        "id": "1369518",
        "meta": {
          "versionId": "1",
          "lastUpdated": "2020-07-04T13:29:51.690+00:00",
          "source": "#ffbobhfzJV0Dzof0"
        },
        "text": {
          "status": "generated",
          "div": "\u003cdiv xmlns\u003d\"http://www.w3.org/1999/xhtml\"\u003eRheumatoid Arthritis\u003c/div\u003e"
        },
        "category": [
          {
            "coding": [
              {
                "system": "http://snomed.info/sct",
                "code": "14657009",
                "display": "Diagnosis"
              }
            ],
            "text": "Diagnosis"
          }
        ],
        "severity": {
          "coding": [
            {
              "system": "http://snomed.info/ct",
              "code": "6736007",
              "display": "moderate"
            }
          ],
          "text": "Moderate"
        },
        "code": {
          "coding": [
            {
              "system": "http://snomed.info/ct",
              "code": "69896004",
              "display": "rheumatoid arthritis"
            }
          ],
          "text": "rheumatoid arthritis - both hands"
        },
        "bodySite": [
          {
            "coding": [
              {
                "system": "http://snomed.info/ct",
                "code": "12861001",
                "display": "both hands"
              }
            ],
            "text": "both hands"
          }
        ],
        "subject": {
          "reference": "Patient/1369511"
        },
        "onsetAge": {
          "value": 72,
          "system": "http://unitsofmeasure.org",
          "code": "a"
        },
        "evidence": [
          {
            "code": [
              {
                "coding": [
                  {
                    "system": "http://snomed.info/ct",
                    "code": "57676002",
                    "display": "Painful Joint"
                  }
                ],
                "text": "Painful joint"
              }
            ]
          }
        ]
      },
      "search": {
        "mode": "match"
      }
    },
    {
      "fullUrl": "http://hapi.fhir.org/baseR4/Condition/1369519",
      "resource": {
        "resourceType": "Condition",
        "id": "1369519",
        "meta": {
          "versionId": "1",
          "lastUpdated": "2020-07-04T13:29:51.690+00:00",
          "source": "#ffbobhfzJV0Dzof0"
        },
        "text": {
          "status": "generated",
          "div": "\u003cdiv xmlns\u003d\"http://www.w3.org/1999/xhtml\"\u003eRheumatoid arthritis - left elbow\u003c/div\u003e"
        },
        "category": [
          {
            "coding": [
              {
                "system": "http://snomed.info/sct",
                "code": "14657009",
                "display": "Diagnosis"
              }
            ],
            "text": "Diagnosis"
          }
        ],
        "severity": {
          "coding": [
            {
              "system": "http://snomed.info/ct",
              "code": "6736007",
              "display": "mild to moderate"
            }
          ],
          "text": "Diagnosis"
        },
        "code": {
          "coding": [
            {
              "system": "http://snomed.info/ct",
              "code": "69896004",
              "display": "rheumatoid arthritis"
            }
          ],
          "text": "rheumatoid arthritis - left elbow"
        },
        "subject": {
          "reference": "Patient/1369511"
        },
        "onsetAge": {
          "value": 74,
          "system": "http://unitsofmeasure.org",
          "code": "a"
        },
        "evidence": [
          {
            "code": [
              {
                "coding": [
                  {
                    "system": "http://snomed.info/ct",
                    "code": "57676002",
                    "display": "Painful Joint"
                  }
                ],
                "text": "Painful joint"
              }
            ]
          }
        ]
      },
      "search": {
        "mode": "match"
      }
    },
    {
      "fullUrl": "http://hapi.fhir.org/baseR4/Condition/1369520",
      "resource": {
        "resourceType": "Condition",
        "id": "1369520",
        "meta": {
          "versionId": "1",
          "lastUpdated": "2020-07-04T13:29:51.690+00:00",
          "source": "#ffbobhfzJV0Dzof0"
        },
        "text": {
          "status": "generated",
          "div": "\u003cdiv xmlns\u003d\"http://www.w3.org/1999/xhtml\"\u003eGERD\u003c/div\u003e"
        },
        "category": [
          {
            "coding": [
              {
                "system": "http://snomed.info/sct",
                "code": "14657009",
                "display": "Diagnosis"
              }
            ],
            "text": "Diagnosis"
          }
        ],
        "severity": {
          "coding": [
            {
              "system": "http://snomed.info/ct",
              "code": "6736007",
              "display": "moderate"
            }
          ],
          "text": "Moderate"
        },
        "code": {
          "coding": [
            {
              "system": "http://snomed.info/ct",
              "code": "235595009",
              "display": "GERD"
            }
          ],
          "text": "GERD"
        },
        "subject": {
          "reference": "Patient/1369511"
        },
        "onsetAge": {
          "value": 66,
          "system": "http://unitsofmeasure.org",
          "code": "a"
        }
      },
      "search": {
        "mode": "match"
      }
    },
    {
      "fullUrl": "http://hapi.fhir.org/baseR4/Condition/1369513",
      "resource": {
        "resourceType": "Condition",
        "id": "1369513",
        "meta": {
          "versionId": "1",
          "lastUpdated": "2020-07-04T13:29:51.690+00:00",
          "source": "#ffbobhfzJV0Dzof0"
        },
        "text": {
          "status": "generated",
          "div": "\u003cdiv xmlns\u003d\"http://www.w3.org/1999/xhtml\"\u003eAsthma\u003c/div\u003e"
        },
        "category": [
          {
            "coding": [
              {
                "system": "http://snomed.info/sct",
                "code": "14657009",
                "display": "Diagnosis"
              }
            ],
            "text": "Diagnosis"
          }
        ],
        "severity": {
          "coding": [
            {
              "system": "http://snomed.info/ct",
              "code": "6736007",
              "display": "mild to moderate"
            }
          ],
          "text": "mild to moderate"
        },
        "code": {
          "coding": [
            {
              "system": "http://snomed.info/ct",
              "code": "195917001",
              "display": "asthma"
            }
          ],
          "text": "asthma"
        },
        "subject": {
          "reference": "Patient/1369511"
        },
        "onsetAge": {
          "value": 14,
          "system": "http://unitsofmeasure.org",
          "code": "a"
        }
      },
      "search": {
        "mode": "match"
      }
    },
    {
      "fullUrl": "http://hapi.fhir.org/baseR4/Condition/1369523",
      "resource": {
        "resourceType": "Condition",
        "id": "1369523",
        "meta": {
          "versionId": "1",
          "lastUpdated": "2020-07-04T13:29:51.690+00:00",
          "source": "#ffbobhfzJV0Dzof0"
        },
        "text": {
          "status": "generated",
          "div": "\u003cdiv xmlns\u003d\"http://www.w3.org/1999/xhtml\"\u003eAngina\u003c/div\u003e"
        },
        "category": [
          {
            "coding": [
              {
                "system": "http://snomed.info/sct",
                "code": "14657009",
                "display": "Diagnosis"
              }
            ],
            "text": "Diagnosis"
          }
        ],
        "severity": {
          "coding": [
            {
              "system": "http://snomed.info/ct",
              "code": "6736007",
              "display": "moderate"
            }
          ],
          "text": "Moderate"
        },
        "code": {
          "coding": [
            {
              "system": "http://snomed.info/ct",
              "code": "194818000",
              "display": "angina"
            }
          ],
          "text": "angina"
        },
        "subject": {
          "reference": "Patient/1369511"
        },
        "onsetAge": {
          "value": 76,
          "system": "http://unitsofmeasure.org",
          "code": "a"
        },
        "evidence": [
          {
            "code": [
              {
                "coding": [
                  {
                    "system": "http://snomed.info/ct",
                    "code": "29857009",
                    "display": "Chest Pain"
                  }
                ],
                "text": "Chest Pain"
              }
            ]
          }
        ]
      },
      "search": {
        "mode": "match"
      }
    },
    {
      "fullUrl": "http://hapi.fhir.org/baseR4/Condition/1369522",
      "resource": {
        "resourceType": "Condition",
        "id": "1369522",
        "meta": {
          "versionId": "1",
          "lastUpdated": "2020-07-04T13:29:51.690+00:00",
          "source": "#ffbobhfzJV0Dzof0"
        },
        "text": {
          "status": "generated",
          "div": "\u003cdiv xmlns\u003d\"http://www.w3.org/1999/xhtml\"\u003eOnychomycosis\u003c/div\u003e"
        },
        "category": [
          {
            "coding": [
              {
                "system": "http://snomed.info/sct",
                "code": "14657009",
                "display": "Diagnosis"
              }
            ],
            "text": "Diagnosis"
          }
        ],
        "severity": {
          "coding": [
            {
              "system": "http://snomed.info/ct",
              "code": "24484000",
              "display": "severe"
            }
          ],
          "text": "severe"
        },
        "code": {
          "coding": [
            {
              "system": "http://snomed.info/ct",
              "code": "414941998",
              "display": "onychomycosis"
            }
          ],
          "text": "onychomycosis"
        },
        "subject": {
          "reference": "Patient/1369511"
        },
        "onsetAge": {
          "value": 77,
          "system": "http://unitsofmeasure.org",
          "code": "a"
        }
      },
      "search": {
        "mode": "match"
      }
    },
    {
      "fullUrl": "http://hapi.fhir.org/baseR4/Condition/1369521",
      "resource": {
        "resourceType": "Condition",
        "id": "1369521",
        "meta": {
          "versionId": "1",
          "lastUpdated": "2020-07-04T13:29:51.690+00:00",
          "source": "#ffbobhfzJV0Dzof0"
        },
        "text": {
          "status": "generated",
          "div": "\u003cdiv xmlns\u003d\"http://www.w3.org/1999/xhtml\"\u003eHypercholesterolaemia\u003c/div\u003e"
        },
        "category": [
          {
            "coding": [
              {
                "system": "http://snomed.info/sct",
                "code": "14657009",
                "display": "Diagnosis"
              }
            ],
            "text": "Diagnosis"
          }
        ],
        "severity": {
          "coding": [
            {
              "system": "http://snomed.info/ct",
              "code": "6736007",
              "display": "moderate"
            }
          ],
          "text": "Moderate"
        },
        "code": {
          "coding": [
            {
              "system": "http://snomed.info/ct",
              "code": "13644009",
              "display": "high cholesterol"
            }
          ],
          "text": "high cholesterol"
        },
        "subject": {
          "reference": "Patient/1369511"
        },
        "onsetAge": {
          "value": 68,
          "system": "http://unitsofmeasure.org",
          "code": "a"
        }
      },
      "search": {
        "mode": "match"
      }
    },
    {
      "fullUrl": "http://hapi.fhir.org/baseR4/Condition/1369517",
      "resource": {
        "resourceType": "Condition",
        "id": "1369517",
        "meta": {
          "versionId": "1",
          "lastUpdated": "2020-07-04T13:29:51.690+00:00",
          "source": "#ffbobhfzJV0Dzof0"
        },
        "text": {
          "status": "generated",
          "div": "\u003cdiv xmlns\u003d\"http://www.w3.org/1999/xhtml\"\u003eNeuropathic pain\u003c/div\u003e"
        },
        "category": [
          {
            "coding": [
              {
                "system": "http://snomed.info/sct",
                "code": "14657009",
                "display": "Diagnosis"
              }
            ],
            "text": "Diagnosis"
          }
        ],
        "severity": {
          "coding": [
            {
              "system": "http://snomed.info/ct",
              "code": "6736007",
              "display": "moderate"
            }
          ],
          "text": "moderate"
        },
        "code": {
          "coding": [
            {
              "system": "http://snomed.info/ct",
              "code": "247389009",
              "display": "neuropathic pain"
            }
          ],
          "text": "neuropathic pain"
        },
        "subject": {
          "reference": "Patient/1369511"
        },
        "onsetAge": {
          "value": 75,
          "system": "http://unitsofmeasure.org",
          "code": "a"
        }
      },
      "search": {
        "mode": "match"
      }
    },
    {
      "fullUrl": "http://hapi.fhir.org/baseR4/Condition/1369516",
      "resource": {
        "resourceType": "Condition",
        "id": "1369516",
        "meta": {
          "versionId": "1",
          "lastUpdated": "2020-07-04T13:29:51.690+00:00",
          "source": "#ffbobhfzJV0Dzof0"
        },
        "text": {
          "status": "generated",
          "div": "\u003cdiv xmlns\u003d\"http://www.w3.org/1999/xhtml\"\u003eDepression\u003c/div\u003e"
        },
        "category": [
          {
            "coding": [
              {
                "system": "http://snomed.info/sct",
                "code": "14657009",
                "display": "Diagnosis"
              }
            ],
            "text": "Diagnosis"
          }
        ],
        "severity": {
          "coding": [
            {
              "system": "http://snomed.info/ct",
              "code": "6736007",
              "display": "moderate"
            }
          ],
          "text": "Moderate"
        },
        "code": {
          "coding": [
            {
              "system": "http://snomed.info/ct",
              "code": "35489007",
              "display": "depression"
            }
          ],
          "text": "depression"
        },
        "subject": {
          "reference": "Patient/1369511"
        },
        "onsetAge": {
          "value": 74,
          "system": "http://unitsofmeasure.org",
          "code": "a"
        }
      },
      "search": {
        "mode": "match"
      }
    },
    {
      "fullUrl": "http://hapi.fhir.org/baseR4/Condition/1369515",
      "resource": {
        "resourceType": "Condition",
        "id": "1369515",
        "meta": {
          "versionId": "1",
          "lastUpdated": "2020-07-04T13:29:51.690+00:00",
          "source": "#ffbobhfzJV0Dzof0"
        },
        "text": {
          "status": "generated",
          "div": "\u003cdiv xmlns\u003d\"http://www.w3.org/1999/xhtml\"\u003eHypertension\u003c/div\u003e"
        },
        "category": [
          {
            "coding": [
              {
                "system": "http://snomed.info/sct",
                "code": "14657009",
                "display": "Diagnosis"
              }
            ],
            "text": "Diagnosis"
          }
        ],
        "severity": {
          "coding": [
            {
              "system": "http://snomed.info/ct",
              "code": "255604002",
              "display": "mild"
            }
          ],
          "text": "Mild"
        },
        "code": {
          "coding": [
            {
              "system": "http://snomed.info/ct",
              "code": "38341003",
              "display": "hypertension"
            }
          ],
          "text": "hypertension"
        },
        "subject": {
          "reference": "Patient/1369511"
        },
        "onsetAge": {
          "value": 68,
          "system": "http://unitsofmeasure.org",
          "code": "a"
        }
      },
      "search": {
        "mode": "match"
      }
    },
    {
      "fullUrl": "http://hapi.fhir.org/baseR4/Condition/1369514",
      "resource": {
        "resourceType": "Condition",
        "id": "1369514",
        "meta": {
          "versionId": "1",
          "lastUpdated": "2020-07-04T13:29:51.690+00:00",
          "source": "#ffbobhfzJV0Dzof0"
        },
        "text": {
          "status": "generated",
          "div": "\u003cdiv xmlns\u003d\"http://www.w3.org/1999/xhtml\"\u003eDiabetes\u003c/div\u003e"
        },
        "category": [
          {
            "coding": [
              {
                "system": "http://snomed.info/sct",
                "code": "14657009",
                "display": "Diagnosis"
              }
            ],
            "text": "Diagnosis"
          }
        ],
        "severity": {
          "coding": [
            {
              "system": "http://snomed.info/ct",
              "code": "6736007",
              "display": "moderate"
            }
          ],
          "text": "moderate"
        },
        "code": {
          "coding": [
            {
              "system": "http://snomed.info/ct",
              "code": "73211009",
              "display": "diabetes"
            }
          ],
          "text": "diabetes"
        },
        "subject": {
          "reference": "Patient/1369511"
        },
        "onsetAge": {
          "value": 60,
          "system": "http://unitsofmeasure.org",
          "code": "a"
        }
      },
      "search": {
        "mode": "match"
      }
    },
    {
      "fullUrl": "http://hapi.fhir.org/baseR4/Patient/1369349",
      "resource": {
        "resourceType": "Patient",
        "id": "1369349",
        "meta": {
          "versionId": "1",
          "lastUpdated": "2020-07-04T13:26:32.551+00:00",
          "source": "#shtUAIYcXHWqEQsk"
        },
        "text": {
          "status": "generated",
          "div": "\u003cdiv xmlns\u003d\"http://www.w3.org/1999/xhtml\"\u003ePoppy Anderson\u003c/div\u003e"
        },
        "identifier": [
          {
            "system": "http://clinfhir.com/fhir/NamingSystem/identifier",
            "value": "321"
          }
        ],
        "name": [
          {
            "use": "official",
            "text": "Poppy Anderson",
            "family": "Anderson",
            "given": [
              "Poppy"
            ]
          }
        ],
        "gender": "female",
        "birthDate": "2020-07-04"
      },
      "search": {
        "mode": "include"
      }
    },
    {
      "fullUrl": "http://hapi.fhir.org/baseR4/Patient/1369511",
      "resource": {
        "resourceType": "Patient",
        "id": "1369511",
        "meta": {
          "versionId": "1",
          "lastUpdated": "2020-07-04T13:29:48.628+00:00",
          "source": "#5QG3ht3hfLkGCchN"
        },
        "text": {
          "status": "generated",
          "div": "\u003cdiv xmlns\u003d\"http://www.w3.org/1999/xhtml\"\u003eConnor White\u003c/div\u003e"
        },
        "identifier": [
          {
            "system": "http://clinfhir.com/fhir/NamingSystem/identifier",
            "value": "1"
          }
        ],
        "name": [
          {
            "use": "official",
            "text": "Connor White",
            "family": "White",
            "given": [
              "Connor"
            ]
          }
        ],
        "gender": "male",
        "birthDate": "2020-07-04"
      },
      "search": {
        "mode": "include"
      }
    }
  ]
}