{
  "resourceType": "Bundle",
  "id": "b3ad5efb-e3ac-417a-8bdd-01c2c84cdaba",
  "meta": {
    "lastUpdated": "2021-01-05T10:07:19.195+00:00"
  },
  "type": "searchset",
  "link": [
    {
      "relation": "self",
      "url": "http://hapi.fhir.org/baseR4?_getpages\u003db3ad5efb-e3ac-417a-8bdd-01c2c84cdaba\u0026_getpagesoffset\u003d160\u0026_count\u003d20\u0026_format\u003djson\u0026_pretty\u003dtrue\u0026_bundletype\u003dsearchset"
    },
    {
      "relation": "next",
      "url": "http://hapi.fhir.org/baseR4?_getpages\u003db3ad5efb-e3ac-417a-8bdd-01c2c84cdaba\u0026_getpagesoffset\u003d180\u0026_count\u003d20\u0026_format\u003djson\u0026_pretty\u003dtrue\u0026_bundletype\u003dsearchset"
    },
    {
      "relation": "previous",
      "url": "http://hapi.fhir.org/baseR4?_getpages\u003db3ad5efb-e3ac-417a-8bdd-01c2c84cdaba\u0026_getpagesoffset\u003d140\u0026_count\u003d20\u0026_format\u003djson\u0026_pretty\u003dtrue\u0026_bundletype\u003dsearchset"
    }
  ],
  "entry": [
    {
      "fullUrl": "http://hapi.fhir.org/baseR4/Condition/1377275",
      "resource": {
        "resourceType": "Condition",
        "id": "1377275",
        "meta": {
          "versionId": "1",
          "lastUpdated": "2020-07-08T17:36:01.342+00:00",
          "source": "#xzqojc7L8EWbMWmA"
        },
        "text": {
          "status": "generated",
          "div": "\u003cdiv xmlns\u003d\"http://www.w3.org/1999/xhtml\"\u003eGERD\u003c/div\u003e"
        },
        "category": [
          {
            "coding": [
              {
                "system": "http://snomed.info/sct",
                "code": "14657009",
                "display": "Diagnosis"
              }
            ],
            "text": "Diagnosis"
          }
        ],
        "severity": {
          "coding": [
            {
              "system": "http://snomed.info/ct",
              "code": "6736007",
              "display": "moderate"
            }
          ],
          "text": "Moderate"
        },
        "code": {
          "coding": [
            {
              "system": "http://snomed.info/ct",
              "code": "235595009",
              "display": "GERD"
            }
          ],
          "text": "GERD"
        },
        "subject": {
          "reference": "Patient/1377265"
        },
        "onsetAge": {
          "value": 66,
          "system": "http://unitsofmeasure.org",
          "code": "a"
        }
      },
      "search": {
        "mode": "match"
      }
    },
    {
      "fullUrl": "http://hapi.fhir.org/baseR4/Condition/1377276",
      "resource": {
        "resourceType": "Condition",
        "id": "1377276",
        "meta": {
          "versionId": "1",
          "lastUpdated": "2020-07-08T17:36:01.342+00:00",
          "source": "#xzqojc7L8EWbMWmA"
        },
        "text": {
          "status": "generated",
          "div": "\u003cdiv xmlns\u003d\"http://www.w3.org/1999/xhtml\"\u003eHypercholesterolaemia\u003c/div\u003e"
        },
        "category": [
          {
            "coding": [
              {
                "system": "http://snomed.info/sct",
                "code": "14657009",
                "display": "Diagnosis"
              }
            ],
            "text": "Diagnosis"
          }
        ],
        "severity": {
          "coding": [
            {
              "system": "http://snomed.info/ct",
              "code": "6736007",
              "display": "moderate"
            }
          ],
          "text": "Moderate"
        },
        "code": {
          "coding": [
            {
              "system": "http://snomed.info/ct",
              "code": "13644009",
              "display": "high cholesterol"
            }
          ],
          "text": "high cholesterol"
        },
        "subject": {
          "reference": "Patient/1377265"
        },
        "onsetAge": {
          "value": 68,
          "system": "http://unitsofmeasure.org",
          "code": "a"
        }
      },
      "search": {
        "mode": "match"
      }
    },
    {
      "fullUrl": "http://hapi.fhir.org/baseR4/Condition/1377277",
      "resource": {
        "resourceType": "Condition",
        "id": "1377277",
        "meta": {
          "versionId": "1",
          "lastUpdated": "2020-07-08T17:36:01.342+00:00",
          "source": "#xzqojc7L8EWbMWmA"
        },
        "text": {
          "status": "generated",
          "div": "\u003cdiv xmlns\u003d\"http://www.w3.org/1999/xhtml\"\u003eOnychomycosis\u003c/div\u003e"
        },
        "category": [
          {
            "coding": [
              {
                "system": "http://snomed.info/sct",
                "code": "14657009",
                "display": "Diagnosis"
              }
            ],
            "text": "Diagnosis"
          }
        ],
        "severity": {
          "coding": [
            {
              "system": "http://snomed.info/ct",
              "code": "24484000",
              "display": "severe"
            }
          ],
          "text": "severe"
        },
        "code": {
          "coding": [
            {
              "system": "http://snomed.info/ct",
              "code": "414941998",
              "display": "onychomycosis"
            }
          ],
          "text": "onychomycosis"
        },
        "subject": {
          "reference": "Patient/1377265"
        },
        "onsetAge": {
          "value": 77,
          "system": "http://unitsofmeasure.org",
          "code": "a"
        }
      },
      "search": {
        "mode": "match"
      }
    },
    {
      "fullUrl": "http://hapi.fhir.org/baseR4/Condition/1377278",
      "resource": {
        "resourceType": "Condition",
        "id": "1377278",
        "meta": {
          "versionId": "1",
          "lastUpdated": "2020-07-08T17:36:01.342+00:00",
          "source": "#xzqojc7L8EWbMWmA"
        },
        "text": {
          "status": "generated",
          "div": "\u003cdiv xmlns\u003d\"http://www.w3.org/1999/xhtml\"\u003eAngina\u003c/div\u003e"
        },
        "category": [
          {
            "coding": [
              {
                "system": "http://snomed.info/sct",
                "code": "14657009",
                "display": "Diagnosis"
              }
            ],
            "text": "Diagnosis"
          }
        ],
        "severity": {
          "coding": [
            {
              "system": "http://snomed.info/ct",
              "code": "6736007",
              "display": "moderate"
            }
          ],
          "text": "Moderate"
        },
        "code": {
          "coding": [
            {
              "system": "http://snomed.info/ct",
              "code": "194818000",
              "display": "angina"
            }
          ],
          "text": "angina"
        },
        "subject": {
          "reference": "Patient/1377265"
        },
        "onsetAge": {
          "value": 76,
          "system": "http://unitsofmeasure.org",
          "code": "a"
        },
        "evidence": [
          {
            "code": [
              {
                "coding": [
                  {
                    "system": "http://snomed.info/ct",
                    "code": "29857009",
                    "display": "Chest Pain"
                  }
                ],
                "text": "Chest Pain"
              }
            ]
          }
        ]
      },
      "search": {
        "mode": "match"
      }
    },
    {
      "fullUrl": "http://hapi.fhir.org/baseR4/Condition/1377268",
      "resource": {
        "resourceType": "Condition",
        "id": "1377268",
        "meta": {
          "versionId": "1",
          "lastUpdated": "2020-07-08T17:36:01.342+00:00",
          "source": "#xzqojc7L8EWbMWmA"
        },
        "text": {
          "status": "generated",
          "div": "\u003cdiv xmlns\u003d\"http://www.w3.org/1999/xhtml\"\u003eAsthma\u003c/div\u003e"
        },
        "category": [
          {
            "coding": [
              {
                "system": "http://snomed.info/sct",
                "code": "14657009",
                "display": "Diagnosis"
              }
            ],
            "text": "Diagnosis"
          }
        ],
        "severity": {
          "coding": [
            {
              "system": "http://snomed.info/ct",
              "code": "6736007",
              "display": "mild to moderate"
            }
          ],
          "text": "mild to moderate"
        },
        "code": {
          "coding": [
            {
              "system": "http://snomed.info/ct",
              "code": "195917001",
              "display": "asthma"
            }
          ],
          "text": "asthma"
        },
        "subject": {
          "reference": "Patient/1377265"
        },
        "onsetAge": {
          "value": 14,
          "system": "http://unitsofmeasure.org",
          "code": "a"
        }
      },
      "search": {
        "mode": "match"
      }
    },
    {
      "fullUrl": "http://hapi.fhir.org/baseR4/Condition/1377269",
      "resource": {
        "resourceType": "Condition",
        "id": "1377269",
        "meta": {
          "versionId": "1",
          "lastUpdated": "2020-07-08T17:36:01.342+00:00",
          "source": "#xzqojc7L8EWbMWmA"
        },
        "text": {
          "status": "generated",
          "div": "\u003cdiv xmlns\u003d\"http://www.w3.org/1999/xhtml\"\u003eDiabetes\u003c/div\u003e"
        },
        "category": [
          {
            "coding": [
              {
                "system": "http://snomed.info/sct",
                "code": "14657009",
                "display": "Diagnosis"
              }
            ],
            "text": "Diagnosis"
          }
        ],
        "severity": {
          "coding": [
            {
              "system": "http://snomed.info/ct",
              "code": "6736007",
              "display": "moderate"
            }
          ],
          "text": "moderate"
        },
        "code": {
          "coding": [
            {
              "system": "http://snomed.info/ct",
              "code": "73211009",
              "display": "diabetes"
            }
          ],
          "text": "diabetes"
        },
        "subject": {
          "reference": "Patient/1377265"
        },
        "onsetAge": {
          "value": 60,
          "system": "http://unitsofmeasure.org",
          "code": "a"
        }
      },
      "search": {
        "mode": "match"
      }
    },
    {
      "fullUrl": "http://hapi.fhir.org/baseR4/Condition/1377933",
      "resource": {
        "resourceType": "Condition",
        "id": "1377933",
        "meta": {
          "versionId": "1",
          "lastUpdated": "2020-07-08T21:26:54.319+00:00",
          "source": "#0fLLhbY3ZwHUCIua"
        },
        "text": {
          "status": "generated",
          "div": "\u003cdiv xmlns\u003d\"http://www.w3.org/1999/xhtml\"\u003eHypertension\u003c/div\u003e"
        },
        "category": [
          {
            "coding": [
              {
                "system": "http://snomed.info/sct",
                "code": "14657009",
                "display": "Diagnosis"
              }
            ],
            "text": "Diagnosis"
          }
        ],
        "severity": {
          "coding": [
            {
              "system": "http://snomed.info/ct",
              "code": "255604002",
              "display": "mild"
            }
          ],
          "text": "Mild"
        },
        "code": {
          "coding": [
            {
              "system": "http://snomed.info/ct",
              "code": "38341003",
              "display": "hypertension"
            }
          ],
          "text": "hypertension"
        },
        "subject": {
          "reference": "Patient/1377929"
        },
        "onsetAge": {
          "value": 68,
          "system": "http://unitsofmeasure.org",
          "code": "a"
        }
      },
      "search": {
        "mode": "match"
      }
    },
    {
      "fullUrl": "http://hapi.fhir.org/baseR4/Condition/1377934",
      "resource": {
        "resourceType": "Condition",
        "id": "1377934",
        "meta": {
          "versionId": "1",
          "lastUpdated": "2020-07-08T21:26:54.319+00:00",
          "source": "#0fLLhbY3ZwHUCIua"
        },
        "text": {
          "status": "generated",
          "div": "\u003cdiv xmlns\u003d\"http://www.w3.org/1999/xhtml\"\u003eDepression\u003c/div\u003e"
        },
        "category": [
          {
            "coding": [
              {
                "system": "http://snomed.info/sct",
                "code": "14657009",
                "display": "Diagnosis"
              }
            ],
            "text": "Diagnosis"
          }
        ],
        "severity": {
          "coding": [
            {
              "system": "http://snomed.info/ct",
              "code": "6736007",
              "display": "moderate"
            }
          ],
          "text": "Moderate"
        },
        "code": {
          "coding": [
            {
              "system": "http://snomed.info/ct",
              "code": "35489007",
              "display": "depression"
            }
          ],
          "text": "depression"
        },
        "subject": {
          "reference": "Patient/1377929"
        },
        "onsetAge": {
          "value": 74,
          "system": "http://unitsofmeasure.org",
          "code": "a"
        }
      },
      "search": {
        "mode": "match"
      }
    },
    {
      "fullUrl": "http://hapi.fhir.org/baseR4/Condition/1377936",
      "resource": {
        "resourceType": "Condition",
        "id": "1377936",
        "meta": {
          "versionId": "1",
          "lastUpdated": "2020-07-08T21:26:54.319+00:00",
          "source": "#0fLLhbY3ZwHUCIua"
        },
        "text": {
          "status": "generated",
          "div": "\u003cdiv xmlns\u003d\"http://www.w3.org/1999/xhtml\"\u003eRheumatoid Arthritis\u003c/div\u003e"
        },
        "category": [
          {
            "coding": [
              {
                "system": "http://snomed.info/sct",
                "code": "14657009",
                "display": "Diagnosis"
              }
            ],
            "text": "Diagnosis"
          }
        ],
        "severity": {
          "coding": [
            {
              "system": "http://snomed.info/ct",
              "code": "6736007",
              "display": "moderate"
            }
          ],
          "text": "Moderate"
        },
        "code": {
          "coding": [
            {
              "system": "http://snomed.info/ct",
              "code": "69896004",
              "display": "rheumatoid arthritis"
            }
          ],
          "text": "rheumatoid arthritis - both hands"
        },
        "bodySite": [
          {
            "coding": [
              {
                "system": "http://snomed.info/ct",
                "code": "12861001",
                "display": "both hands"
              }
            ],
            "text": "both hands"
          }
        ],
        "subject": {
          "reference": "Patient/1377929"
        },
        "onsetAge": {
          "value": 72,
          "system": "http://unitsofmeasure.org",
          "code": "a"
        },
        "evidence": [
          {
            "code": [
              {
                "coding": [
                  {
                    "system": "http://snomed.info/ct",
                    "code": "57676002",
                    "display": "Painful Joint"
                  }
                ],
                "text": "Painful joint"
              }
            ]
          }
        ]
      },
      "search": {
        "mode": "match"
      }
    },
    {
      "fullUrl": "http://hapi.fhir.org/baseR4/Condition/1377935",
      "resource": {
        "resourceType": "Condition",
        "id": "1377935",
        "meta": {
          "versionId": "1",
          "lastUpdated": "2020-07-08T21:26:54.319+00:00",
          "source": "#0fLLhbY3ZwHUCIua"
        },
        "text": {
          "status": "generated",
          "div": "\u003cdiv xmlns\u003d\"http://www.w3.org/1999/xhtml\"\u003eNeuropathic pain\u003c/div\u003e"
        },
        "category": [
          {
            "coding": [
              {
                "system": "http://snomed.info/sct",
                "code": "14657009",
                "display": "Diagnosis"
              }
            ],
            "text": "Diagnosis"
          }
        ],
        "severity": {
          "coding": [
            {
              "system": "http://snomed.info/ct",
              "code": "6736007",
              "display": "moderate"
            }
          ],
          "text": "moderate"
        },
        "code": {
          "coding": [
            {
              "system": "http://snomed.info/ct",
              "code": "247389009",
              "display": "neuropathic pain"
            }
          ],
          "text": "neuropathic pain"
        },
        "subject": {
          "reference": "Patient/1377929"
        },
        "onsetAge": {
          "value": 75,
          "system": "http://unitsofmeasure.org",
          "code": "a"
        }
      },
      "search": {
        "mode": "match"
      }
    },
    {
      "fullUrl": "http://hapi.fhir.org/baseR4/Condition/1377938",
      "resource": {
        "resourceType": "Condition",
        "id": "1377938",
        "meta": {
          "versionId": "1",
          "lastUpdated": "2020-07-08T21:26:54.319+00:00",
          "source": "#0fLLhbY3ZwHUCIua"
        },
        "text": {
          "status": "generated",
          "div": "\u003cdiv xmlns\u003d\"http://www.w3.org/1999/xhtml\"\u003eGERD\u003c/div\u003e"
        },
        "category": [
          {
            "coding": [
              {
                "system": "http://snomed.info/sct",
                "code": "14657009",
                "display": "Diagnosis"
              }
            ],
            "text": "Diagnosis"
          }
        ],
        "severity": {
          "coding": [
            {
              "system": "http://snomed.info/ct",
              "code": "6736007",
              "display": "moderate"
            }
          ],
          "text": "Moderate"
        },
        "code": {
          "coding": [
            {
              "system": "http://snomed.info/ct",
              "code": "235595009",
              "display": "GERD"
            }
          ],
          "text": "GERD"
        },
        "subject": {
          "reference": "Patient/1377929"
        },
        "onsetAge": {
          "value": 66,
          "system": "http://unitsofmeasure.org",
          "code": "a"
        }
      },
      "search": {
        "mode": "match"
      }
    },
    {
      "fullUrl": "http://hapi.fhir.org/baseR4/Condition/1377937",
      "resource": {
        "resourceType": "Condition",
        "id": "1377937",
        "meta": {
          "versionId": "1",
          "lastUpdated": "2020-07-08T21:26:54.319+00:00",
          "source": "#0fLLhbY3ZwHUCIua"
        },
        "text": {
          "status": "generated",
          "div": "\u003cdiv xmlns\u003d\"http://www.w3.org/1999/xhtml\"\u003eRheumatoid arthritis - left elbow\u003c/div\u003e"
        },
        "category": [
          {
            "coding": [
              {
                "system": "http://snomed.info/sct",
                "code": "14657009",
                "display": "Diagnosis"
              }
            ],
            "text": "Diagnosis"
          }
        ],
        "severity": {
          "coding": [
            {
              "system": "http://snomed.info/ct",
              "code": "6736007",
              "display": "mild to moderate"
            }
          ],
          "text": "Diagnosis"
        },
        "code": {
          "coding": [
            {
              "system": "http://snomed.info/ct",
              "code": "69896004",
              "display": "rheumatoid arthritis"
            }
          ],
          "text": "rheumatoid arthritis - left elbow"
        },
        "subject": {
          "reference": "Patient/1377929"
        },
        "onsetAge": {
          "value": 74,
          "system": "http://unitsofmeasure.org",
          "code": "a"
        },
        "evidence": [
          {
            "code": [
              {
                "coding": [
                  {
                    "system": "http://snomed.info/ct",
                    "code": "57676002",
                    "display": "Painful Joint"
                  }
                ],
                "text": "Painful joint"
              }
            ]
          }
        ]
      },
      "search": {
        "mode": "match"
      }
    },
    {
      "fullUrl": "http://hapi.fhir.org/baseR4/Condition/1377939",
      "resource": {
        "resourceType": "Condition",
        "id": "1377939",
        "meta": {
          "versionId": "1",
          "lastUpdated": "2020-07-08T21:26:54.319+00:00",
          "source": "#0fLLhbY3ZwHUCIua"
        },
        "text": {
          "status": "generated",
          "div": "\u003cdiv xmlns\u003d\"http://www.w3.org/1999/xhtml\"\u003eHypercholesterolaemia\u003c/div\u003e"
        },
        "category": [
          {
            "coding": [
              {
                "system": "http://snomed.info/sct",
                "code": "14657009",
                "display": "Diagnosis"
              }
            ],
            "text": "Diagnosis"
          }
        ],
        "severity": {
          "coding": [
            {
              "system": "http://snomed.info/ct",
              "code": "6736007",
              "display": "moderate"
            }
          ],
          "text": "Moderate"
        },
        "code": {
          "coding": [
            {
              "system": "http://snomed.info/ct",
              "code": "13644009",
              "display": "high cholesterol"
            }
          ],
          "text": "high cholesterol"
        },
        "subject": {
          "reference": "Patient/1377929"
        },
        "onsetAge": {
          "value": 68,
          "system": "http://unitsofmeasure.org",
          "code": "a"
        }
      },
      "search": {
        "mode": "match"
      }
    },
    {
      "fullUrl": "http://hapi.fhir.org/baseR4/Condition/1377941",
      "resource": {
        "resourceType": "Condition",
        "id": "1377941",
        "meta": {
          "versionId": "1",
          "lastUpdated": "2020-07-08T21:26:54.319+00:00",
          "source": "#0fLLhbY3ZwHUCIua"
        },
        "text": {
          "status": "generated",
          "div": "\u003cdiv xmlns\u003d\"http://www.w3.org/1999/xhtml\"\u003eAngina\u003c/div\u003e"
        },
        "category": [
          {
            "coding": [
              {
                "system": "http://snomed.info/sct",
                "code": "14657009",
                "display": "Diagnosis"
              }
            ],
            "text": "Diagnosis"
          }
        ],
        "severity": {
          "coding": [
            {
              "system": "http://snomed.info/ct",
              "code": "6736007",
              "display": "moderate"
            }
          ],
          "text": "Moderate"
        },
        "code": {
          "coding": [
            {
              "system": "http://snomed.info/ct",
              "code": "194818000",
              "display": "angina"
            }
          ],
          "text": "angina"
        },
        "subject": {
          "reference": "Patient/1377929"
        },
        "onsetAge": {
          "value": 76,
          "system": "http://unitsofmeasure.org",
          "code": "a"
        },
        "evidence": [
          {
            "code": [
              {
                "coding": [
                  {
                    "system": "http://snomed.info/ct",
                    "code": "29857009",
                    "display": "Chest Pain"
                  }
                ],
                "text": "Chest Pain"
              }
            ]
          }
        ]
      },
      "search": {
        "mode": "match"
      }
    },
    {
      "fullUrl": "http://hapi.fhir.org/baseR4/Condition/1377940",
      "resource": {
        "resourceType": "Condition",
        "id": "1377940",
        "meta": {
          "versionId": "1",
          "lastUpdated": "2020-07-08T21:26:54.319+00:00",
          "source": "#0fLLhbY3ZwHUCIua"
        },
        "text": {
          "status": "generated",
          "div": "\u003cdiv xmlns\u003d\"http://www.w3.org/1999/xhtml\"\u003eOnychomycosis\u003c/div\u003e"
        },
        "category": [
          {
            "coding": [
              {
                "system": "http://snomed.info/sct",
                "code": "14657009",
                "display": "Diagnosis"
              }
            ],
            "text": "Diagnosis"
          }
        ],
        "severity": {
          "coding": [
            {
              "system": "http://snomed.info/ct",
              "code": "24484000",
              "display": "severe"
            }
          ],
          "text": "severe"
        },
        "code": {
          "coding": [
            {
              "system": "http://snomed.info/ct",
              "code": "414941998",
              "display": "onychomycosis"
            }
          ],
          "text": "onychomycosis"
        },
        "subject": {
          "reference": "Patient/1377929"
        },
        "onsetAge": {
          "value": 77,
          "system": "http://unitsofmeasure.org",
          "code": "a"
        }
      },
      "search": {
        "mode": "match"
      }
    },
    {
      "fullUrl": "http://hapi.fhir.org/baseR4/Condition/1377932",
      "resource": {
        "resourceType": "Condition",
        "id": "1377932",
        "meta": {
          "versionId": "1",
          "lastUpdated": "2020-07-08T21:26:54.319+00:00",
          "source": "#0fLLhbY3ZwHUCIua"
        },
        "text": {
          "status": "generated",
          "div": "\u003cdiv xmlns\u003d\"http://www.w3.org/1999/xhtml\"\u003eDiabetes\u003c/div\u003e"
        },
        "category": [
          {
            "coding": [
              {
                "system": "http://snomed.info/sct",
                "code": "14657009",
                "display": "Diagnosis"
              }
            ],
            "text": "Diagnosis"
          }
        ],
        "severity": {
          "coding": [
            {
              "system": "http://snomed.info/ct",
              "code": "6736007",
              "display": "moderate"
            }
          ],
          "text": "moderate"
        },
        "code": {
          "coding": [
            {
              "system": "http://snomed.info/ct",
              "code": "73211009",
              "display": "diabetes"
            }
          ],
          "text": "diabetes"
        },
        "subject": {
          "reference": "Patient/1377929"
        },
        "onsetAge": {
          "value": 60,
          "system": "http://unitsofmeasure.org",
          "code": "a"
        }
      },
      "search": {
        "mode": "match"
      }
    },
    {
      "fullUrl": "http://hapi.fhir.org/baseR4/Condition/1377931",
      "resource": {
        "resourceType": "Condition",
        "id": "1377931",
        "meta": {
          "versionId": "1",
          "lastUpdated": "2020-07-08T21:26:54.319+00:00",
          "source": "#0fLLhbY3ZwHUCIua"
        },
        "text": {
          "status": "generated",
          "div": "\u003cdiv xmlns\u003d\"http://www.w3.org/1999/xhtml\"\u003eAsthma\u003c/div\u003e"
        },
        "category": [
          {
            "coding": [
              {
                "system": "http://snomed.info/sct",
                "code": "14657009",
                "display": "Diagnosis"
              }
            ],
            "text": "Diagnosis"
          }
        ],
        "severity": {
          "coding": [
            {
              "system": "http://snomed.info/ct",
              "code": "6736007",
              "display": "mild to moderate"
            }
          ],
          "text": "mild to moderate"
        },
        "code": {
          "coding": [
            {
              "system": "http://snomed.info/ct",
              "code": "195917001",
              "display": "asthma"
            }
          ],
          "text": "asthma"
        },
        "subject": {
          "reference": "Patient/1377929"
        },
        "onsetAge": {
          "value": 14,
          "system": "http://unitsofmeasure.org",
          "code": "a"
        }
      },
      "search": {
        "mode": "match"
      }
    },
    {
      "fullUrl": "http://hapi.fhir.org/baseR4/Condition/1378061",
      "resource": {
        "resourceType": "Condition",
        "id": "1378061",
        "meta": {
          "versionId": "1",
          "lastUpdated": "2020-07-08T21:52:54.547+00:00",
          "source": "#D9ZHGQjUIBSRLKhP"
        },
        "text": {
          "status": "generated",
          "div": "\u003cdiv xmlns\u003d\"http://www.w3.org/1999/xhtml\"\u003eDepression\u003c/div\u003e"
        },
        "category": [
          {
            "coding": [
              {
                "system": "http://snomed.info/sct",
                "code": "14657009",
                "display": "Diagnosis"
              }
            ],
            "text": "Diagnosis"
          }
        ],
        "severity": {
          "coding": [
            {
              "system": "http://snomed.info/ct",
              "code": "6736007",
              "display": "moderate"
            }
          ],
          "text": "Moderate"
        },
        "code": {
          "coding": [
            {
              "system": "http://snomed.info/ct",
              "code": "35489007",
              "display": "depression"
            }
          ],
          "text": "depression"
        },
        "subject": {
          "reference": "Patient/1378056"
        },
        "onsetAge": {
          "value": 74,
          "system": "http://unitsofmeasure.org",
          "code": "a"
        }
      },
      "search": {
        "mode": "match"
      }
    },
    {
      "fullUrl": "http://hapi.fhir.org/baseR4/Condition/1378063",
      "resource": {
        "resourceType": "Condition",
        "id": "1378063",
        "meta": {
          "versionId": "1",
          "lastUpdated": "2020-07-08T21:52:54.547+00:00",
          "source": "#D9ZHGQjUIBSRLKhP"
        },
        "text": {
          "status": "generated",
          "div": "\u003cdiv xmlns\u003d\"http://www.w3.org/1999/xhtml\"\u003eRheumatoid Arthritis\u003c/div\u003e"
        },
        "category": [
          {
            "coding": [
              {
                "system": "http://snomed.info/sct",
                "code": "14657009",
                "display": "Diagnosis"
              }
            ],
            "text": "Diagnosis"
          }
        ],
        "severity": {
          "coding": [
            {
              "system": "http://snomed.info/ct",
              "code": "6736007",
              "display": "moderate"
            }
          ],
          "text": "Moderate"
        },
        "code": {
          "coding": [
            {
              "system": "http://snomed.info/ct",
              "code": "69896004",
              "display": "rheumatoid arthritis"
            }
          ],
          "text": "rheumatoid arthritis - both hands"
        },
        "bodySite": [
          {
            "coding": [
              {
                "system": "http://snomed.info/ct",
                "code": "12861001",
                "display": "both hands"
              }
            ],
            "text": "both hands"
          }
        ],
        "subject": {
          "reference": "Patient/1378056"
        },
        "onsetAge": {
          "value": 72,
          "system": "http://unitsofmeasure.org",
          "code": "a"
        },
        "evidence": [
          {
            "code": [
              {
                "coding": [
                  {
                    "system": "http://snomed.info/ct",
                    "code": "57676002",
                    "display": "Painful Joint"
                  }
                ],
                "text": "Painful joint"
              }
            ]
          }
        ]
      },
      "search": {
        "mode": "match"
      }
    },
    {
      "fullUrl": "http://hapi.fhir.org/baseR4/Condition/1378062",
      "resource": {
        "resourceType": "Condition",
        "id": "1378062",
        "meta": {
          "versionId": "1",
          "lastUpdated": "2020-07-08T21:52:54.547+00:00",
          "source": "#D9ZHGQjUIBSRLKhP"
        },
        "text": {
          "status": "generated",
          "div": "\u003cdiv xmlns\u003d\"http://www.w3.org/1999/xhtml\"\u003eNeuropathic pain\u003c/div\u003e"
        },
        "category": [
          {
            "coding": [
              {
                "system": "http://snomed.info/sct",
                "code": "14657009",
                "display": "Diagnosis"
              }
            ],
            "text": "Diagnosis"
          }
        ],
        "severity": {
          "coding": [
            {
              "system": "http://snomed.info/ct",
              "code": "6736007",
              "display": "moderate"
            }
          ],
          "text": "moderate"
        },
        "code": {
          "coding": [
            {
              "system": "http://snomed.info/ct",
              "code": "247389009",
              "display": "neuropathic pain"
            }
          ],
          "text": "neuropathic pain"
        },
        "subject": {
          "reference": "Patient/1378056"
        },
        "onsetAge": {
          "value": 75,
          "system": "http://unitsofmeasure.org",
          "code": "a"
        }
      },
      "search": {
        "mode": "match"
      }
    },
    {
      "fullUrl": "http://hapi.fhir.org/baseR4/Patient/1377265",
      "resource": {
        "resourceType": "Patient",
        "id": "1377265",
        "meta": {
          "versionId": "1",
          "lastUpdated": "2020-07-08T17:35:59.930+00:00",
          "source": "#bCf5g2GebUwgL0dX"
        },
        "text": {
          "status": "generated",
          "div": "\u003cdiv xmlns\u003d\"http://www.w3.org/1999/xhtml\"\u003eGeorge Morris\u003c/div\u003e"
        },
        "name": [
          {
            "use": "official",
            "text": "George Morris",
            "family": "Morris",
            "given": [
              "George"
            ]
          }
        ],
        "gender": "male",
        "birthDate": "2020-07-08"
      },
      "search": {
        "mode": "include"
      }
    },
    {
      "fullUrl": "http://hapi.fhir.org/baseR4/Patient/1377929",
      "resource": {
        "resourceType": "Patient",
        "id": "1377929",
        "meta": {
          "versionId": "1",
          "lastUpdated": "2020-07-08T21:26:53.213+00:00",
          "source": "#P4SKEV4QxMEgGZaA"
        },
        "text": {
          "status": "generated",
          "div": "\u003cdiv xmlns\u003d\"http://www.w3.org/1999/xhtml\"\u003eHarrison Williams\u003c/div\u003e"
        },
        "name": [
          {
            "use": "official",
            "text": "Harrison Williams",
            "family": "Williams",
            "given": [
              "Harrison"
            ]
          }
        ],
        "gender": "male",
        "birthDate": "2020-07-08"
      },
      "search": {
        "mode": "include"
      }
    },
    {
      "fullUrl": "http://hapi.fhir.org/baseR4/Patient/1378056",
      "resource": {
        "resourceType": "Patient",
        "id": "1378056",
        "meta": {
          "versionId": "1",
          "lastUpdated": "2020-07-08T21:52:53.366+00:00",
          "source": "#5CmUUZDaMYKmmWdb"
        },
        "text": {
          "status": "generated",
          "div": "\u003cdiv xmlns\u003d\"http://www.w3.org/1999/xhtml\"\u003eSophia Wilson\u003c/div\u003e"
        },
        "identifier": [
          {
            "system": "http://clinfhir.com/fhir/NamingSystem/identifier",
            "value": "80802020"
          }
        ],
        "name": [
          {
            "use": "official",
            "text": "Sophia Wilson",
            "family": "Wilson",
            "given": [
              "Sophia"
            ]
          }
        ],
        "gender": "female",
        "birthDate": "2020-07-08"
      },
      "search": {
        "mode": "include"
      }
    }
  ]
}