{
  "resourceType": "Bundle",
  "id": "cdc55e54-c403-4158-914d-5548fd4016a4",
  "meta": {
    "lastUpdated": "2021-01-05T09:44:03.563+00:00"
  },
  "type": "searchset",
  "link": [
    {
      "relation": "self",
      "url": "http://hapi.fhir.org/baseR4?_getpages\u003dcdc55e54-c403-4158-914d-5548fd4016a4\u0026_getpagesoffset\u003d20\u0026_count\u003d20\u0026_format\u003djson\u0026_pretty\u003dtrue\u0026_bundletype\u003dsearchset"
    },
    {
      "relation": "next",
      "url": "http://hapi.fhir.org/baseR4?_getpages\u003dcdc55e54-c403-4158-914d-5548fd4016a4\u0026_getpagesoffset\u003d40\u0026_count\u003d20\u0026_format\u003djson\u0026_pretty\u003dtrue\u0026_bundletype\u003dsearchset"
    },
    {
      "relation": "previous",
      "url": "http://hapi.fhir.org/baseR4?_getpages\u003dcdc55e54-c403-4158-914d-5548fd4016a4\u0026_getpagesoffset\u003d0\u0026_count\u003d20\u0026_format\u003djson\u0026_pretty\u003dtrue\u0026_bundletype\u003dsearchset"
    }
  ],
  "entry": [
    {
      "fullUrl": "http://hapi.fhir.org/baseR4/Encounter/1322520",
      "resource": {
        "resourceType": "Encounter",
        "id": "1322520",
        "meta": {
          "versionId": "1",
          "lastUpdated": "2020-07-03T19:06:37.497+00:00",
          "source": "#hq44tfeFqDazMmHF"
        },
        "status": "finished",
        "statusHistory": [
          {
            "status": "finished",
            "period": {
              "start": "2017-02-19T08:44:38-05:00",
              "end": "2017-02-19T08:44:38-05:00"
            }
          }
        ],
        "class": {
          "code": "OBSENC"
        },
        "subject": {
          "reference": "Patient/1322015",
          "type": "Patient"
        },
        "period": {
          "start": "2017-03-01T07:44:38-05:00",
          "end": "2017-03-01T10:44:38-05:00"
        }
      },
      "search": {
        "mode": "match"
      }
    },
    {
      "fullUrl": "http://hapi.fhir.org/baseR4/Encounter/1322521",
      "resource": {
        "resourceType": "Encounter",
        "id": "1322521",
        "meta": {
          "versionId": "1",
          "lastUpdated": "2020-07-03T19:06:37.770+00:00",
          "source": "#R9MAnIkjoqxfEO4W"
        },
        "status": "planned",
        "statusHistory": [
          {
            "status": "planned",
            "period": {
              "start": "2017-03-17T14:22:37-04:00",
              "end": "2017-03-17T14:22:37-04:00"
            }
          }
        ],
        "class": {
          "code": "ACUTE"
        },
        "subject": {
          "reference": "Patient/1322016",
          "type": "Patient"
        },
        "period": {
          "start": "2017-03-27T13:22:37-04:00",
          "end": "2017-03-27T16:22:37-04:00"
        }
      },
      "search": {
        "mode": "match"
      }
    },
    {
      "fullUrl": "http://hapi.fhir.org/baseR4/Encounter/1322522",
      "resource": {
        "resourceType": "Encounter",
        "id": "1322522",
        "meta": {
          "versionId": "1",
          "lastUpdated": "2020-07-03T19:06:38.069+00:00",
          "source": "#QvKRJbHPVh7Esw52"
        },
        "status": "finished",
        "statusHistory": [
          {
            "status": "finished",
            "period": {
              "start": "2017-03-09T10:33:47-05:00",
              "end": "2017-03-09T10:33:47-05:00"
            }
          }
        ],
        "class": {
          "code": "SS"
        },
        "subject": {
          "reference": "Patient/1322017",
          "type": "Patient"
        },
        "period": {
          "start": "2017-03-19T09:33:47-04:00",
          "end": "2017-03-19T14:33:47-04:00"
        }
      },
      "search": {
        "mode": "match"
      }
    },
    {
      "fullUrl": "http://hapi.fhir.org/baseR4/Encounter/1322523",
      "resource": {
        "resourceType": "Encounter",
        "id": "1322523",
        "meta": {
          "versionId": "1",
          "lastUpdated": "2020-07-03T19:06:38.310+00:00",
          "source": "#XtaezHRWCBzrcYxu"
        },
        "status": "planned",
        "statusHistory": [
          {
            "status": "planned",
            "period": {
              "start": "2017-03-08T07:59:28-05:00",
              "end": "2017-03-08T07:59:28-05:00"
            }
          }
        ],
        "class": {
          "code": "IMP"
        },
        "subject": {
          "reference": "Patient/1322018",
          "type": "Patient"
        },
        "period": {
          "start": "2017-03-18T06:59:28-04:00",
          "end": "2017-03-18T10:59:28-04:00"
        }
      },
      "search": {
        "mode": "match"
      }
    },
    {
      "fullUrl": "http://hapi.fhir.org/baseR4/Encounter/1322527",
      "resource": {
        "resourceType": "Encounter",
        "id": "1322527",
        "meta": {
          "versionId": "1",
          "lastUpdated": "2020-07-03T19:06:39.599+00:00",
          "source": "#yMZad8B4sv0qRXxU"
        },
        "status": "planned",
        "statusHistory": [
          {
            "status": "finished",
            "period": {
              "start": "2017-03-15T10:00:10-04:00",
              "end": "2017-03-15T10:00:10-04:00"
            }
          }
        ],
        "class": {
          "code": "AMB"
        },
        "subject": {
          "reference": "Patient/1322022",
          "type": "Patient"
        },
        "period": {
          "start": "2017-03-25T09:00:10-04:00",
          "end": "2017-03-25T13:00:10-04:00"
        }
      },
      "search": {
        "mode": "match"
      }
    },
    {
      "fullUrl": "http://hapi.fhir.org/baseR4/Encounter/1322528",
      "resource": {
        "resourceType": "Encounter",
        "id": "1322528",
        "meta": {
          "versionId": "1",
          "lastUpdated": "2020-07-03T19:06:39.834+00:00",
          "source": "#9BMn1Sm7tYsJDXfn"
        },
        "status": "finished",
        "statusHistory": [
          {
            "status": "finished",
            "period": {
              "start": "2017-02-20T06:11:30-05:00",
              "end": "2017-02-20T06:11:30-05:00"
            }
          }
        ],
        "class": {
          "code": "SS"
        },
        "subject": {
          "reference": "Patient/1322023",
          "type": "Patient"
        },
        "period": {
          "start": "2017-03-02T05:11:30-05:00",
          "end": "2017-03-02T09:11:30-05:00"
        }
      },
      "search": {
        "mode": "match"
      }
    },
    {
      "fullUrl": "http://hapi.fhir.org/baseR4/Encounter/1180446",
      "resource": {
        "resourceType": "Encounter",
        "id": "1180446",
        "meta": {
          "versionId": "1",
          "lastUpdated": "2020-06-03T10:00:15.167+00:00",
          "source": "#J0DjxPxsMFG5N0KL"
        },
        "text": {
          "status": "generated",
          "div": "\u003cdiv xmlns\u003d\"http://www.w3.org/1999/xhtml\"\u003eJun 2nd 2020 for sore throat\u003c/div\u003e"
        },
        "status": "finished",
        "type": [
          {
            "text": "OutPatient"
          }
        ],
        "subject": {
          "reference": "Patient/1180393"
        },
        "participant": [
          {
            "individual": {
              "reference": "Practitioner/30164",
              "display": "Dr John Doe"
            }
          }
        ],
        "period": {
          "start": "2020-06-02T10:00:15.132Z"
        },
        "diagnosis": [
          {
            "condition": {
              "reference": "Condition/1180440"
            }
          },
          {
            "condition": {
              "reference": "Condition/1180441"
            }
          }
        ]
      },
      "search": {
        "mode": "match"
      }
    },
    {
      "fullUrl": "http://hapi.fhir.org/baseR4/Encounter/1180455",
      "resource": {
        "resourceType": "Encounter",
        "id": "1180455",
        "meta": {
          "versionId": "1",
          "lastUpdated": "2020-06-03T10:00:15.167+00:00",
          "source": "#J0DjxPxsMFG5N0KL"
        },
        "text": {
          "status": "generated",
          "div": "\u003cdiv xmlns\u003d\"http://www.w3.org/1999/xhtml\"\u003eApr 22nd 2020 for sore throat\u003c/div\u003e"
        },
        "status": "finished",
        "type": [
          {
            "text": "GP"
          }
        ],
        "subject": {
          "reference": "Patient/1180393"
        },
        "participant": [
          {
            "individual": {
              "reference": "Practitioner/30166",
              "display": "Dr Annette Jones"
            }
          }
        ],
        "period": {
          "start": "2020-04-22T10:00:15.134Z"
        }
      },
      "search": {
        "mode": "match"
      }
    },
    {
      "fullUrl": "http://hapi.fhir.org/baseR4/Encounter/1180453",
      "resource": {
        "resourceType": "Encounter",
        "id": "1180453",
        "meta": {
          "versionId": "1",
          "lastUpdated": "2020-06-03T10:00:15.167+00:00",
          "source": "#J0DjxPxsMFG5N0KL"
        },
        "text": {
          "status": "generated",
          "div": "\u003cdiv xmlns\u003d\"http://www.w3.org/1999/xhtml\"\u003eApr 15th 2020 for sore throat\u003c/div\u003e"
        },
        "status": "finished",
        "type": [
          {
            "text": "GP"
          }
        ],
        "subject": {
          "reference": "Patient/1180393"
        },
        "participant": [
          {
            "individual": {
              "reference": "Practitioner/30166",
              "display": "Dr Annette Jones"
            }
          }
        ],
        "period": {
          "start": "2020-04-15T10:00:15.134Z"
        }
      },
      "search": {
        "mode": "match"
      }
    },
    {
      "fullUrl": "http://hapi.fhir.org/baseR4/Encounter/1180454",
      "resource": {
        "resourceType": "Encounter",
        "id": "1180454",
        "meta": {
          "versionId": "1",
          "lastUpdated": "2020-06-03T10:00:15.167+00:00",
          "source": "#J0DjxPxsMFG5N0KL"
        },
        "text": {
          "status": "generated",
          "div": "\u003cdiv xmlns\u003d\"http://www.w3.org/1999/xhtml\"\u003eMay 19th 2020 for headache\u003c/div\u003e"
        },
        "status": "finished",
        "type": [
          {
            "text": "OutPatient"
          }
        ],
        "subject": {
          "reference": "Patient/1180393"
        },
        "participant": [
          {
            "individual": {
              "reference": "Practitioner/30164",
              "display": "Dr John Doe"
            }
          }
        ],
        "period": {
          "start": "2020-05-19T10:00:15.134Z"
        },
        "diagnosis": [
          {
            "condition": {
              "reference": "Condition/1180442"
            }
          },
          {
            "condition": {
              "reference": "Condition/1180437"
            }
          },
          {
            "condition": {
              "reference": "Condition/1180444"
            }
          }
        ]
      },
      "search": {
        "mode": "match"
      }
    },
    {
      "fullUrl": "http://hapi.fhir.org/baseR4/Encounter/1180452",
      "resource": {
        "resourceType": "Encounter",
        "id": "1180452",
        "meta": {
          "versionId": "1",
          "lastUpdated": "2020-06-03T10:00:15.167+00:00",
          "source": "#J0DjxPxsMFG5N0KL"
        },
        "text": {
          "status": "generated",
          "div": "\u003cdiv xmlns\u003d\"http://www.w3.org/1999/xhtml\"\u003eMay 20th 2020 for sore throat\u003c/div\u003e"
        },
        "status": "finished",
        "type": [
          {
            "text": "GP"
          }
        ],
        "subject": {
          "reference": "Patient/1180393"
        },
        "participant": [
          {
            "individual": {
              "reference": "Practitioner/30166",
              "display": "Dr Annette Jones"
            }
          }
        ],
        "period": {
          "start": "2020-05-20T10:00:15.134Z"
        },
        "diagnosis": [
          {
            "condition": {
              "reference": "Condition/1180439"
            }
          }
        ]
      },
      "search": {
        "mode": "match"
      }
    },
    {
      "fullUrl": "http://hapi.fhir.org/baseR4/Encounter/1180451",
      "resource": {
        "resourceType": "Encounter",
        "id": "1180451",
        "meta": {
          "versionId": "1",
          "lastUpdated": "2020-06-03T10:00:15.167+00:00",
          "source": "#J0DjxPxsMFG5N0KL"
        },
        "text": {
          "status": "generated",
          "div": "\u003cdiv xmlns\u003d\"http://www.w3.org/1999/xhtml\"\u003eApr 21st 2020 for sore throat\u003c/div\u003e"
        },
        "status": "finished",
        "type": [
          {
            "text": "GP"
          }
        ],
        "subject": {
          "reference": "Patient/1180393"
        },
        "participant": [
          {
            "individual": {
              "reference": "Practitioner/30166",
              "display": "Dr Annette Jones"
            }
          }
        ],
        "period": {
          "start": "2020-04-21T10:00:15.133Z"
        },
        "diagnosis": [
          {
            "condition": {
              "reference": "Condition/1180436"
            }
          },
          {
            "condition": {
              "reference": "Condition/1180441"
            }
          }
        ]
      },
      "search": {
        "mode": "match"
      }
    },
    {
      "fullUrl": "http://hapi.fhir.org/baseR4/Encounter/1180450",
      "resource": {
        "resourceType": "Encounter",
        "id": "1180450",
        "meta": {
          "versionId": "1",
          "lastUpdated": "2020-06-03T10:00:15.167+00:00",
          "source": "#J0DjxPxsMFG5N0KL"
        },
        "text": {
          "status": "generated",
          "div": "\u003cdiv xmlns\u003d\"http://www.w3.org/1999/xhtml\"\u003eMay 19th 2020 for headache\u003c/div\u003e"
        },
        "status": "finished",
        "type": [
          {
            "text": "OutPatient"
          }
        ],
        "subject": {
          "reference": "Patient/1180393"
        },
        "participant": [
          {
            "individual": {
              "reference": "Practitioner/30166",
              "display": "Dr Annette Jones"
            }
          }
        ],
        "period": {
          "start": "2020-05-19T10:00:15.133Z"
        }
      },
      "search": {
        "mode": "match"
      }
    },
    {
      "fullUrl": "http://hapi.fhir.org/baseR4/Encounter/1180449",
      "resource": {
        "resourceType": "Encounter",
        "id": "1180449",
        "meta": {
          "versionId": "1",
          "lastUpdated": "2020-06-03T10:00:15.167+00:00",
          "source": "#J0DjxPxsMFG5N0KL"
        },
        "text": {
          "status": "generated",
          "div": "\u003cdiv xmlns\u003d\"http://www.w3.org/1999/xhtml\"\u003eApr 16th 2020 for sore throat\u003c/div\u003e"
        },
        "status": "finished",
        "type": [
          {
            "text": "GP"
          }
        ],
        "subject": {
          "reference": "Patient/1180393"
        },
        "participant": [
          {
            "individual": {
              "reference": "Practitioner/30166",
              "display": "Dr Annette Jones"
            }
          }
        ],
        "period": {
          "start": "2020-04-16T10:00:15.133Z"
        },
        "diagnosis": [
          {
            "condition": {
              "reference": "Condition/1180438"
            }
          },
          {
            "condition": {
              "reference": "Condition/1180444"
            }
          },
          {
            "condition": {
              "reference": "Condition/1180437"
            }
          },
          {
            "condition": {
              "reference": "Condition/1180442"
            }
          }
        ]
      },
      "search": {
        "mode": "match"
      }
    },
    {
      "fullUrl": "http://hapi.fhir.org/baseR4/Encounter/1180448",
      "resource": {
        "resourceType": "Encounter",
        "id": "1180448",
        "meta": {
          "versionId": "1",
          "lastUpdated": "2020-06-03T10:00:15.167+00:00",
          "source": "#J0DjxPxsMFG5N0KL"
        },
        "text": {
          "status": "generated",
          "div": "\u003cdiv xmlns\u003d\"http://www.w3.org/1999/xhtml\"\u003eApr 5th 2020 for headache\u003c/div\u003e"
        },
        "status": "finished",
        "type": [
          {
            "text": "OutPatient"
          }
        ],
        "subject": {
          "reference": "Patient/1180393"
        },
        "participant": [
          {
            "individual": {
              "reference": "Practitioner/30166",
              "display": "Dr Annette Jones"
            }
          }
        ],
        "period": {
          "start": "2020-04-05T10:00:15.133Z"
        },
        "diagnosis": [
          {
            "condition": {
              "reference": "Condition/1180437"
            }
          },
          {
            "condition": {
              "reference": "Condition/1180441"
            }
          },
          {
            "condition": {
              "reference": "Condition/1180435"
            }
          }
        ]
      },
      "search": {
        "mode": "match"
      }
    },
    {
      "fullUrl": "http://hapi.fhir.org/baseR4/Encounter/1180447",
      "resource": {
        "resourceType": "Encounter",
        "id": "1180447",
        "meta": {
          "versionId": "1",
          "lastUpdated": "2020-06-03T10:00:15.167+00:00",
          "source": "#J0DjxPxsMFG5N0KL"
        },
        "text": {
          "status": "generated",
          "div": "\u003cdiv xmlns\u003d\"http://www.w3.org/1999/xhtml\"\u003eJun 2nd 2020 for headache\u003c/div\u003e"
        },
        "status": "finished",
        "type": [
          {
            "text": "GP"
          }
        ],
        "subject": {
          "reference": "Patient/1180393"
        },
        "participant": [
          {
            "individual": {
              "reference": "Practitioner/30164",
              "display": "Dr John Doe"
            }
          }
        ],
        "period": {
          "start": "2020-06-02T10:00:15.133Z"
        }
      },
      "search": {
        "mode": "match"
      }
    },
    {
      "fullUrl": "http://hapi.fhir.org/baseR4/Encounter/1322524",
      "resource": {
        "resourceType": "Encounter",
        "id": "1322524",
        "meta": {
          "versionId": "1",
          "lastUpdated": "2020-07-03T19:06:38.617+00:00",
          "source": "#UEuCqWklk5xX2vVF"
        },
        "status": "planned",
        "statusHistory": [
          {
            "status": "planned",
            "period": {
              "start": "2017-03-16T15:15:14-04:00",
              "end": "2017-03-16T15:15:14-04:00"
            }
          }
        ],
        "class": {
          "code": "AMB"
        },
        "subject": {
          "reference": "Patient/1322019",
          "type": "Patient"
        },
        "period": {
          "start": "2017-03-26T14:15:14-04:00",
          "end": "2017-03-26T17:15:14-04:00"
        }
      },
      "search": {
        "mode": "match"
      }
    },
    {
      "fullUrl": "http://hapi.fhir.org/baseR4/Encounter/1322525",
      "resource": {
        "resourceType": "Encounter",
        "id": "1322525",
        "meta": {
          "versionId": "1",
          "lastUpdated": "2020-07-03T19:06:38.903+00:00",
          "source": "#QYhD7ty1NGdtQh3M"
        },
        "status": "planned",
        "statusHistory": [
          {
            "status": "planned",
            "period": {
              "start": "2017-03-15T06:41:49-04:00",
              "end": "2017-03-15T06:41:49-04:00"
            }
          }
        ],
        "class": {
          "code": "IMP"
        },
        "subject": {
          "reference": "Patient/1322020",
          "type": "Patient"
        },
        "period": {
          "start": "2017-03-25T05:41:49-04:00",
          "end": "2017-03-25T09:41:49-04:00"
        }
      },
      "search": {
        "mode": "match"
      }
    },
    {
      "fullUrl": "http://hapi.fhir.org/baseR4/Encounter/1322526",
      "resource": {
        "resourceType": "Encounter",
        "id": "1322526",
        "meta": {
          "versionId": "1",
          "lastUpdated": "2020-07-03T19:06:39.320+00:00",
          "source": "#K0HY9hC6dE8C27pW"
        },
        "status": "planned",
        "statusHistory": [
          {
            "status": "planned",
            "period": {
              "start": "2017-03-13T13:02:35-04:00",
              "end": "2017-03-13T13:02:35-04:00"
            }
          }
        ],
        "class": {
          "code": "ACUTE"
        },
        "subject": {
          "reference": "Patient/1322021",
          "type": "Patient"
        },
        "period": {
          "start": "2017-03-23T12:02:35-04:00",
          "end": "2017-03-23T16:02:35-04:00"
        }
      },
      "search": {
        "mode": "match"
      }
    },
    {
      "fullUrl": "http://hapi.fhir.org/baseR4/Encounter/1322529",
      "resource": {
        "resourceType": "Encounter",
        "id": "1322529",
        "meta": {
          "versionId": "1",
          "lastUpdated": "2020-07-03T19:06:40.122+00:00",
          "source": "#sy075Ge06WwoFYun"
        },
        "status": "finished",
        "statusHistory": [
          {
            "status": "finished",
            "period": {
              "start": "2017-03-10T19:33:16-05:00",
              "end": "2017-03-10T19:33:16-05:00"
            }
          }
        ],
        "class": {
          "code": "AMB"
        },
        "subject": {
          "reference": "Patient/1322024",
          "type": "Patient"
        },
        "period": {
          "start": "2017-03-20T18:33:16-04:00",
          "end": "2017-03-20T23:33:16-04:00"
        }
      },
      "search": {
        "mode": "match"
      }
    },
    {
      "fullUrl": "http://hapi.fhir.org/baseR4/Patient/1322020",
      "resource": {
        "resourceType": "Patient",
        "id": "1322020",
        "meta": {
          "versionId": "1",
          "lastUpdated": "2020-07-03T19:04:02.874+00:00",
          "source": "#qvUV9Du4SEWGYN03"
        },
        "text": {
          "status": "generated",
          "div": "\u003cdiv xmlns\u003d\"http://www.w3.org/1999/xhtml\"\u003e\u003cdiv class\u003d\"hapiHeaderText\"\u003eColin \u003cb\u003eNURRISHT \u003c/b\u003e\u003c/div\u003e\u003ctable class\u003d\"hapiPropertyTable\"\u003e\u003ctbody/\u003e\u003c/table\u003e\u003c/div\u003e"
        },
        "name": [
          {
            "family": "Nurrisht",
            "given": [
              "Colin"
            ]
          }
        ]
      },
      "search": {
        "mode": "include"
      }
    },
    {
      "fullUrl": "http://hapi.fhir.org/baseR4/Patient/1322021",
      "resource": {
        "resourceType": "Patient",
        "id": "1322021",
        "meta": {
          "versionId": "1",
          "lastUpdated": "2020-07-03T19:04:03.185+00:00",
          "source": "#X8tITkPpBd1PImp4"
        },
        "text": {
          "status": "generated",
          "div": "\u003cdiv xmlns\u003d\"http://www.w3.org/1999/xhtml\"\u003e\u003cdiv class\u003d\"hapiHeaderText\"\u003eToi \u003cb\u003eNOMMANEE \u003c/b\u003e\u003c/div\u003e\u003ctable class\u003d\"hapiPropertyTable\"\u003e\u003ctbody/\u003e\u003c/table\u003e\u003c/div\u003e"
        },
        "name": [
          {
            "family": "Nommanee",
            "given": [
              "Toi"
            ]
          }
        ]
      },
      "search": {
        "mode": "include"
      }
    },
    {
      "fullUrl": "http://hapi.fhir.org/baseR4/Patient/1322022",
      "resource": {
        "resourceType": "Patient",
        "id": "1322022",
        "meta": {
          "versionId": "1",
          "lastUpdated": "2020-07-03T19:04:03.495+00:00",
          "source": "#B9JxtM1zXUVgysmi"
        },
        "text": {
          "status": "generated",
          "div": "\u003cdiv xmlns\u003d\"http://www.w3.org/1999/xhtml\"\u003e\u003cdiv class\u003d\"hapiHeaderText\"\u003eOlive \u003cb\u003eMANDINGBOSS \u003c/b\u003e\u003c/div\u003e\u003ctable class\u003d\"hapiPropertyTable\"\u003e\u003ctbody/\u003e\u003c/table\u003e\u003c/div\u003e"
        },
        "name": [
          {
            "family": "Mandingboss",
            "given": [
              "Olive"
            ]
          }
        ]
      },
      "search": {
        "mode": "include"
      }
    },
    {
      "fullUrl": "http://hapi.fhir.org/baseR4/Patient/1322023",
      "resource": {
        "resourceType": "Patient",
        "id": "1322023",
        "meta": {
          "versionId": "1",
          "lastUpdated": "2020-07-03T19:04:03.788+00:00",
          "source": "#bHKRWEKU4j2RY5wj"
        },
        "text": {
          "status": "generated",
          "div": "\u003cdiv xmlns\u003d\"http://www.w3.org/1999/xhtml\"\u003e\u003cdiv class\u003d\"hapiHeaderText\"\u003eManuel \u003cb\u003eBIDING \u003c/b\u003e\u003c/div\u003e\u003ctable class\u003d\"hapiPropertyTable\"\u003e\u003ctbody/\u003e\u003c/table\u003e\u003c/div\u003e"
        },
        "name": [
          {
            "family": "Biding",
            "given": [
              "Manuel"
            ]
          }
        ]
      },
      "search": {
        "mode": "include"
      }
    },
    {
      "fullUrl": "http://hapi.fhir.org/baseR4/Patient/1322016",
      "resource": {
        "resourceType": "Patient",
        "id": "1322016",
        "meta": {
          "versionId": "1",
          "lastUpdated": "2020-07-03T19:04:01.183+00:00",
          "source": "#zI1Z6lR0ehIgkyBH"
        },
        "text": {
          "status": "generated",
          "div": "\u003cdiv xmlns\u003d\"http://www.w3.org/1999/xhtml\"\u003e\u003cdiv class\u003d\"hapiHeaderText\"\u003eBridget \u003cb\u003eGWAFRANCA \u003c/b\u003e\u003c/div\u003e\u003ctable class\u003d\"hapiPropertyTable\"\u003e\u003ctbody/\u003e\u003c/table\u003e\u003c/div\u003e"
        },
        "name": [
          {
            "family": "Gwafranca",
            "given": [
              "Bridget"
            ]
          }
        ]
      },
      "search": {
        "mode": "include"
      }
    },
    {
      "fullUrl": "http://hapi.fhir.org/baseR4/Patient/1322017",
      "resource": {
        "resourceType": "Patient",
        "id": "1322017",
        "meta": {
          "versionId": "1",
          "lastUpdated": "2020-07-03T19:04:01.655+00:00",
          "source": "#UXkbzLtrwf8x9klI"
        },
        "text": {
          "status": "generated",
          "div": "\u003cdiv xmlns\u003d\"http://www.w3.org/1999/xhtml\"\u003e\u003cdiv class\u003d\"hapiHeaderText\"\u003eLynne \u003cb\u003eONNABIT \u003c/b\u003e\u003c/div\u003e\u003ctable class\u003d\"hapiPropertyTable\"\u003e\u003ctbody/\u003e\u003c/table\u003e\u003c/div\u003e"
        },
        "name": [
          {
            "family": "Onnabit",
            "given": [
              "Lynne"
            ]
          }
        ]
      },
      "search": {
        "mode": "include"
      }
    },
    {
      "fullUrl": "http://hapi.fhir.org/baseR4/Patient/1322018",
      "resource": {
        "resourceType": "Patient",
        "id": "1322018",
        "meta": {
          "versionId": "1",
          "lastUpdated": "2020-07-03T19:04:02.138+00:00",
          "source": "#IDj2mUXtKJM89XK2"
        },
        "text": {
          "status": "generated",
          "div": "\u003cdiv xmlns\u003d\"http://www.w3.org/1999/xhtml\"\u003e\u003cdiv class\u003d\"hapiHeaderText\"\u003eWynn \u003cb\u003eARIAS \u003c/b\u003e\u003c/div\u003e\u003ctable class\u003d\"hapiPropertyTable\"\u003e\u003ctbody/\u003e\u003c/table\u003e\u003c/div\u003e"
        },
        "name": [
          {
            "family": "Arias",
            "given": [
              "Wynn"
            ]
          }
        ]
      },
      "search": {
        "mode": "include"
      }
    },
    {
      "fullUrl": "http://hapi.fhir.org/baseR4/Patient/1322019",
      "resource": {
        "resourceType": "Patient",
        "id": "1322019",
        "meta": {
          "versionId": "1",
          "lastUpdated": "2020-07-03T19:04:02.515+00:00",
          "source": "#ELkQUO7zW1SlucUE"
        },
        "text": {
          "status": "generated",
          "div": "\u003cdiv xmlns\u003d\"http://www.w3.org/1999/xhtml\"\u003e\u003cdiv class\u003d\"hapiHeaderText\"\u003eJack \u003cb\u003eARIAS \u003c/b\u003e\u003c/div\u003e\u003ctable class\u003d\"hapiPropertyTable\"\u003e\u003ctbody/\u003e\u003c/table\u003e\u003c/div\u003e"
        },
        "name": [
          {
            "family": "Arias",
            "given": [
              "Jack"
            ]
          }
        ]
      },
      "search": {
        "mode": "include"
      }
    },
    {
      "fullUrl": "http://hapi.fhir.org/baseR4/Patient/1180393",
      "resource": {
        "resourceType": "Patient",
        "id": "1180393",
        "meta": {
          "versionId": "1",
          "lastUpdated": "2020-06-03T10:00:13.367+00:00",
          "source": "#jMwLIaUGPGHUt8GM"
        },
        "text": {
          "status": "generated",
          "div": "\u003cdiv xmlns\u003d\"http://www.w3.org/1999/xhtml\"\u003eRicardo Bejar\u003c/div\u003e"
        },
        "identifier": [
          {
            "system": "http://clinfhir.com/fhir/NamingSystem/identifier",
            "value": "ricardo.bejar"
          }
        ],
        "name": [
          {
            "use": "official",
            "text": "Ricardo Bejar",
            "family": "Bejar",
            "given": [
              "Ricardo"
            ]
          }
        ],
        "gender": "male",
        "birthDate": "1994-08-18"
      },
      "search": {
        "mode": "include"
      }
    },
    {
      "fullUrl": "http://hapi.fhir.org/baseR4/Patient/1322015",
      "resource": {
        "resourceType": "Patient",
        "id": "1322015",
        "meta": {
          "versionId": "1",
          "lastUpdated": "2020-07-03T19:04:00.857+00:00",
          "source": "#sEAzLhlCPPMf9z7W"
        },
        "text": {
          "status": "generated",
          "div": "\u003cdiv xmlns\u003d\"http://www.w3.org/1999/xhtml\"\u003e\u003cdiv class\u003d\"hapiHeaderText\"\u003eCon \u003cb\u003eSCOPE \u003c/b\u003e\u003c/div\u003e\u003ctable class\u003d\"hapiPropertyTable\"\u003e\u003ctbody/\u003e\u003c/table\u003e\u003c/div\u003e"
        },
        "name": [
          {
            "family": "Scope",
            "given": [
              "Con"
            ]
          }
        ]
      },
      "search": {
        "mode": "include"
      }
    },
    {
      "fullUrl": "http://hapi.fhir.org/baseR4/Patient/1322024",
      "resource": {
        "resourceType": "Patient",
        "id": "1322024",
        "meta": {
          "versionId": "1",
          "lastUpdated": "2020-07-03T19:04:04.122+00:00",
          "source": "#UReg0mXPMs6bljw9"
        },
        "text": {
          "status": "generated",
          "div": "\u003cdiv xmlns\u003d\"http://www.w3.org/1999/xhtml\"\u003e\u003cdiv class\u003d\"hapiHeaderText\"\u003eNorma \u003cb\u003eBUSH \u003c/b\u003e\u003c/div\u003e\u003ctable class\u003d\"hapiPropertyTable\"\u003e\u003ctbody/\u003e\u003c/table\u003e\u003c/div\u003e"
        },
        "name": [
          {
            "family": "Bush",
            "given": [
              "Norma"
            ]
          }
        ]
      },
      "search": {
        "mode": "include"
      }
    }
  ]
}