{
  "resourceType": "Bundle",
  "id": "cf-1626189727146",
  "type": "collection",
  "entry": [
    {
      "resource": {
        "resourceType": "Condition",
        "text": {
          "status": "generated",
          "div": "<div xmlns='http://www.w3.org/1999/xhtml'>Caso asignado<a name='mm'/></div>"
        },
        "id": "cf-1626192985321",
        "subject": {
          "reference": "Patient/cf-1626189772081"
        },
        "category": [
          {
            "coding": [
              {
                "code": "encounter-diagnosis",
                "system": "http://terminology.hl7.org/CodeSystem/condition-category",
                "display": "Encounter Diagnosis"
              }
            ]
          }
        ],
        "code": {
          "coding": [
            {
              "code": "87522002",
              "system": "http://snomed.info/sct",
              "display": "Iron deficiency anaemia"
            }
          ]
        },
        "note": [
          {
            "text": "Motivo de consulta: Revisión de exámenes en el CESFAM.",
            "time": "2021-07-13T18:22:01-04:00"
          },
          {
            "text": "Guión del caso clínico:\nAnamnesis próxima: Consulta la semana pasada por dolor de rodilla izquierda por la cual se automedicado con Ibuprofeno 3 veces al día. Ha presentado ocasionalmente reflujo, lo cual él maneja con omeprazol.\nAnamnesis remota y hábitos: \nAntecedentes mórbidos: DM (controlada). \nAntecedentes Infectocontagiosos: no refiere. \nAntecedentes Quirúrgicos: \nFármacos: Metformina 1-0-1, omeprazol 20 mg cuando presenta acidez, Ibuprofeno  400 mg 3 veces al día\nAlergias: No.",
            "time": "2021-07-13T18:22:42-04:00"
          },
          {
            "text": "Examen físico: \nExamen físico general ? Estado de conciencia GCS 15 Constitución y estado nutritivo: endomorfo\nPiel y mucosas: hipocoloreadas\nFanéreos: Uñas quebradizas.\n\nExamen físico segmentario\nCabeza y cuello: queilitis angular. sin adenopatías palpables \nCardiopulmonar: sin hallazgos patológicos a la inspección, percusión y palpación normal,  R2T SS agregados\nAbdominal: obesidad centrípeta, auscultación RA normales, abdomen distendido con dolor a la palpación profunda en epigastrio.\nNeurológico: Asténico, adinámico.\nTacto rectal: sin alteraciones. \nVascular periférico: MMII levemente varicoso",
            "time": "2021-07-13T18:23:40-04:00"
          }
        ]
      }
    },
    {
      "resource": {
        "resourceType": "DiagnosticReport",
        "text": {
          "status": "generated",
          "div": "<div xmlns='http://www.w3.org/1999/xhtml'><a name='mm'/></div>"
        },
        "id": "cf-1626211230196",
        "subject": {
          "reference": "Patient/cf-1626189772081"
        },
        "encounter": {
          "reference": "Encounter/cf-1626189740588"
        },
        "result": [
          {
            "reference": "Observation/cf-1626209455869"
          }
        ],
        "conclusion": "ANEMIA FERROPENICA",
        "issued": "2021-07-13T17:26:41-04:00",
        "code": {
          "coding": [
            {
              "code": "87522002",
              "system": "http://snomed.info/sct",
              "display": "Iron deficiency anaemia"
            }
          ],
          "text": "Iron deficiency anaemia"
        },
        "imagingStudy": [
          {
            "reference": "ImagingStudy/cf-1626369282640"
          }
        ]
      }
    },
    {
      "resource": {
        "resourceType": "Encounter",
        "text": {
          "status": "generated",
          "div": "<div xmlns='http://www.w3.org/1999/xhtml'><a name='mm'/></div>"
        },
        "id": "cf-1626189740588",
        "subject": {
          "reference": "Patient/cf-1626189772081"
        },
        "status": "finished",
        "class": {
          "system": "http://terminology.hl7.org/CodeSystem/v3-ActCode",
          "code": "AMB",
          "display": "Ambulatorio"
        },
        "participant": [
          {
            "individual": {
              "reference": "Practitioner/cf-1626189851578"
            },
            "type": [
              {
                "coding": [
                  {
                    "code": "PPRF",
                    "system": "http://hl7.org/fhir/ValueSet/encounter-participant-type",
                    "display": "primary performer"
                  }
                ]
              }
            ]
          },
          {}
        ],
        "period": {
          "start": "2021-05-12T04:00:00.000Z",
          "end": "2021-05-12T04:00:00.000Z"
        },
        "reasonReference": [
          {
            "reference": "Condition/cf-1626192985321"
          }
        ]
      }
    },
    {
      "resource": {
        "resourceType": "Endpoint",
        "text": {
          "status": "generated",
          "div": "<div xmlns='http://www.w3.org/1999/xhtml'><a name='mm'/></div>"
        },
        "id": "cf-1626369501696",
        "name": "RX",
        "address": "http://telepatologia.utalca.cl/simulacion/uploads/reslabs/alumnos/1779__67320.jpg"
      }
    },
    {
      "resource": {
        "resourceType": "ImagingStudy",
        "text": {
          "status": "generated",
          "div": "<div xmlns='http://www.w3.org/1999/xhtml'><a name='mm'/></div>"
        },
        "id": "cf-1626369282640",
        "subject": {
          "reference": "Patient/cf-1626189772081"
        },
        "encounter": {
          "reference": "Encounter/cf-1626189740588"
        },
        "status": "available",
        "series": [
          {
            "endpoint": [
              {
                "reference": "Endpoint/cf-1626369501696"
              }
            ]
          }
        ]
      }
    },
    {
      "resource": {
        "resourceType": "Observation",
        "text": {
          "status": "generated",
          "div": "<div xmlns='http://www.w3.org/1999/xhtml'><a name='mm'/></div>"
        },
        "id": "cf-1626209455869",
        "subject": {
          "reference": "Patient/cf-1626189772081"
        },
        "component": [
          {
            "code": {
              "text": "edad"
            },
            "valueInteger": 60
          },
          {
            "code": {
              "text": "peso"
            },
            "valueInteger": 65
          },
          {
            "code": {
              "text": "talla"
            },
            "valueInteger": 175
          },
          {
            "code": {
              "coding": [
                {
                  "code": "9279-1",
                  "system": "http://loinc.org",
                  "display": "Respiratory rate"
                }
              ]
            },
            "valueInteger": 16
          },
          {
            "code": {
              "coding": [
                {
                  "code": "8867-4",
                  "system": "http://loinc.org",
                  "display": "Heart rate"
                }
              ]
            },
            "valueInteger": 107
          },
          {
            "code": {
              "coding": [
                {
                  "code": "8310-5",
                  "system": "http://loinc.org",
                  "display": "Body temperature"
                }
              ]
            },
            "valueString": "36.7"
          },
          {
            "code": {
              "coding": [
                {
                  "code": "8462-4",
                  "system": "http://loinc.org",
                  "display": "Diastolic blood pressure"
                }
              ]
            },
            "valueInteger": 79
          },
          {
            "code": {
              "coding": [
                {
                  "code": "8480-6",
                  "system": "http://loinc.org",
                  "display": "Systolic blood pressure"
                }
              ]
            },
            "valueInteger": 105
          },


          {
            "code": {
              "coding": [
                {
                  "code": "2276-4",
                  "system": "http://loinc.org",
                  "display": "Ferritin"
                }
              ]
            },
            "valueInteger": 20,
            "interpretation": [
              {
                "coding": [
                  {
                    "code": "N",
                    "system": "http://terminology.hl7.org/CodeSystem/v3-ObservationInterpretation",
                    "display": "Normal"
                  }
                ]
              }
            ]
          },
          {
            "code": {
              "coding": [
                {
                  "code": "14798-3",
                  "system": "http://loinc.org",
                  "display": "Ferremia"
                }
              ]
            },
            "valueInteger": 50,
            "interpretation": [
              {
                "coding": [
                  {
                    "code": "LX",
                    "system": "http://terminology.hl7.org/CodeSystem/v3-ObservationInterpretation",
                    "display": "below low threshold"
                  }
                ]
              }
            ]
          }
        ],
        "encounter": {
          "reference": "Encounter/cf-1626189740588"
        }
      }
    },
    {
      "resource": {
        "resourceType": "Patient",
        "text": {
          "status": "generated",
          "div": "<div xmlns='http://www.w3.org/1999/xhtml'><a name='mm'/></div>"
        },
        "id": "cf-1626189772081",
        "gender": "male",
        "name": [
          {
            "use": "official",
            "given": [
              "Carlos"
            ],
            "family": "Fuentes"
          }
        ],
        "birthDate": "1961-04-11"
      }
    },
    {
      "resource": {
        "resourceType": "Practitioner",
        "text": {
          "status": "generated",
          "div": "<div xmlns='http://www.w3.org/1999/xhtml'><a name='mm'/></div>"
        },
        "id": "cf-1626189851578",
        "name": [
          {
            "use": "official",
            "given": [
              "Patricia"
            ],
            "family": "Pérez"
          }
        ]
      }
    }
  ]
}