{
  "resourceType": "Bundle",
  "id": "bundle-1",
  "type": "collection",
  "entry": [
    
    {

      "resource" : 
       {
        "resourceType": "Condition",
        "id": "cond-1",
        "subject": {
          "reference": "Patient/mosaico-1"
        },
        "code": {
          "coding": [
            {
              "code": "102739008",
              "system": "http://snomed.info/sct",
              "display": "LDL cholesterol"
            }
          ]
        }
      }


    },
    {

      "resource" : 
       {
        "resourceType": "Condition",
        "id": "cond-2",
        "subject": {
          "reference": "Patient/mosaico-1"
        },
        "code": {
          "coding": [
            {
              "code": "59621000",
              "system": "http://snomed.info/sct",
              "display": "Essential hypertension (disorder)"
            }
          ]
        }
      }


    },
    {

      "resource" : 
      {
        "resourceType" : "Endpoint",
        "id": "ep-01",
        "status" : "active",
        "connectionType" : {
          "coding": [
            {
              "system": "http://hl7.org/fhir/ValueSet/endpoint-connection-type",
              "code": "hl7-fhir-msg",
              "display": "  HL7 FHIR Messaging"
            }
          ]
        }, 
        "name" : "RX", 
        "address" : "https://www.dropbox.com/s/k1jv3rw8ddfigm3/rx.jpeg?dl=0"
        
      }
    },
    {

      "resource" : 
      {
        "resourceType": "ImagingStudy",
        "id": "is-01",
        "status": "available",
        "modality": [
          {
            "system": "http://dicom.nema.org/resources/ontology/DCM",
            "code": "DX"
          }
        ],
        "subject": {
          "reference": "Patient/mosaico-1"
        },
        "started": "2017-01-01T11:01:20+03:00",
        "referrer": {
          "reference": "Practitioner/prac-01"
        },
        "endpoint": [
          {
            "reference": "Endpoint/ep-01"
          }
        ]
       
      }

    },
    {

      "resource" : 
      {
        "resourceType": "MedicationStatement",
        "id": "me-01",
        "status": "active",
        "medicationCodeableConcept": {
          "coding": [
            {
              "system": "http://loinc.org",
              "code": "LP171394-2",
              "display": "Enalapril"
            }
          ]
        },
        "subject": {
          "reference": "Patient/mosaico-1",
          "display": "Juan Pérez"
        },
        "informationSource": {
          "reference": "Patient/mosaico-1",
          "display": "Juan Pérez"
        },
        "note": [
          {
            "text": "Patient indicates they miss the occasional dose"
          }
        ],
        "dosage": [
          {
            "sequence": 1,
            "text": "2 mgrs every 12 hours",
            "route": {
              "coding": [
                {
                  "system": "http://snomed.info/sct",
                  "code": "260548002",
                  "display": "Oral"
                }
              ]
            },
            "doseAndRate": [
              {
                "type": {
                  "coding": [
                    {
                      "system": "http://terminology.hl7.org/CodeSystem/dose-rate-type",
                      "code": "ordered",
                      "display": "Ordered"
                    }
                  ]
                },
                "dose": {
                  "doseQuantity": {
                    "value": 20,
                    "unit": "mgrs",
                    "system": "http://unitsofmeasure.org",
                    "code": "/g"
                  }
                },
                "rate": {
                  "doseQuantity": {
                    "value": 1,
                    "unit": "mgrs",
                    "system": "http://unitsofmeasure.org",
                    "code": "/(12.h)"
                  }
                }
              }
            ]
          }
        ]
      }
    },{

      "resource" : 
      {
        "resourceType": "Observation",
        "id": "ob-01",
        "status": "final",
        "category": [
          {
            "coding": [
              {
                "system": "http://terminology.hl7.org/CodeSystem/observation-category",
                "code": "social-history",
                "display": "Social History"
              }
            ]
          }
        ],
        "code": {
          "coding": [
            {
              "system": "http://loinc.org",
              "code": "LP16057-9",
              "display": "Coffeine"
            }
          ]
        },
        "subject": {
          "reference": "Patient/mosaico-1"
        },
        "effectiveDateTime": "2022-01-31",
        "valueRange": {
          "low": {
            "value": 6,
            "unit": "per day",
            "system": "http://unitsofmeasure.org",
            "code": "/d"
          },
          "hight": {
            "value": 8,
            "unit": "per day",
            "system": "http://unitsofmeasure.org",
            "code": "/d"
          }
        }
      }

    },{

      "resource" : 

      {
        "resourceType": "Observation",
        "id": "ob-02",
        "status": "final",
        "category": [
          {
            "coding": [
              {
                "system": "http://terminology.hl7.org/CodeSystem/observation-category",
                "code": "social-history",
                "display": "Social History"
              }
            ]
          }
        ],
        "code": {
          "coding": [
            {
              "system": "http://loinc.org",
              "code": "11367-0",
              "display": "History of Tobacco use"
            }
          ]
        },
        "subject": {
          "reference": "Patient/mosaico-1"
        },
        "effectiveDateTime": "2022-01-31",
        "valueQuantity": {
          "value": 20,
          "unit": "per day",
          "system": "http://unitsofmeasure.org",
          "code": "/d"
        }
      }


    },{

      "resource" : 
      {
        "resourceType": "Observation",
        "id": "ob-03",
        "status": "final",
        "category": [
          {
            "coding": [
              {
                "system": "http://terminology.hl7.org/CodeSystem/observation-category",
                "code": "laboratory",
                "display": "Laboratory"
              }
            ]
          }
        ],
        "code": {
          "coding": [
            {
              "system": "http://loinc.org",
              "code": "58410-2",
              "display": "CBC panel - Blood by Automated count"
            }
          ]
        },
        "subject": {
          "reference": "Patient/mosaico-1"
        },
        "component": 
        [
       
          {
            "code": {
              "coding": [
                {
                  "code": "6690-2",
                  "system": "http://loinc.org",
                  "display": "Leukocytes [#/volume] in Blood by Automated count"
                }
              ]
            },
            "valueQuantity": {
              "value": 6000,
              "unit": "units per microliter",
              "system": "http://unitsofmeasure.org",
              "code": "/uL"
            }
          },
          {
            "code": {
              "coding": [
                {
                  "code": "777-3",
                  "system": "http://loinc.org",
                  "display": "Platelets [#/volume] in Blood by Automated count"
                }
              ]
            },
            "valueQuantity": {
              "value": 208.3,
              "unit": "units per microliter",
              "system": "http://unitsofmeasure.org",
              "code": "/uL"
            }
          },{
            "code": {
              "coding": [
                {
                  "code": " 718-7",
                  "system": "http://loinc.org",
                  "display": "Hemoglobin [Mass/volume] in Blood"
                }
              ]
            },
            "valueQuantity": {
              "value": 13.3,
              "unit": "g/dL",
              "system": "http://unitsofmeasure.org",
              "code": "g/dL"
            }
          }
         
        ]
      }


    },{

      "resource" : 
      {
        "resourceType": "Observation",
        "id": "ob-04",
        "status": "final",
        "category": [
          {
            "coding": [
              {
                "system": "http://terminology.hl7.org/CodeSystem/observation-category",
                "code": "laboratory",
                "display": "Laboratory"
              }
            ]
          }
        ],
        "code": {
          "coding": [
            {
              "system": "http://loinc.org",
              "code": "57698-3",
              "display": "Lipid panel with direct LDL - Serum or Plasma"
            }
          ]
        },
        "subject": {
          "reference": "Patient/mosaico-1"
        },
        "component": 
        [
       
          {
            "code": {
              "coding": [
                {
                  "code": "2093-3",
                  "system": "http://loinc.org",
                  "display": "Cholesterol [Mass/volume] in Serum or Plasma"
                }
              ]
            },
            "valueQuantity": {
              "value": 301,
              "unit": "mg/dL",
              "system": "http://unitsofmeasure.org",
              "code": "mg/dL"
            }
          },
          {
            "code": {
              "coding": [
                {
                  "code": "2571-8",
                  "system": "http://loinc.org",
                  "display": "Triglyceride [Mass/volume] in Serum or Plasma"
                }
              ]
            },
             "valueQuantity": {
              "value": 108,
              "unit": "mg/dL",
              "system": "http://unitsofmeasure.org",
              "code": "mg/dL"
            }
          },{
            "code": {
              "coding": [
                {
                  "code": " 2085-9",
                  "system": "http://loinc.org",
                  "display": "Cholesterol in HDL [Mass/volume] in Serum or Plasma"
                }
              ]
            },
             "valueQuantity": {
              "value": 41,
              "unit": "mg/dL",
              "system": "http://unitsofmeasure.org",
              "code": "mg/dL"
            }
          },{
            "code": {
              "coding": [
                {
                  "code": "18262-6",
                  "system": "http://loinc.org",
                  "display": "Cholesterol in LDL [Mass/volume] in Serum or Plasma by Direct assay"
                }
              ]
            },
             "valueQuantity": {
              "value": 223,
              "unit": "mg/dL",
              "system": "http://unitsofmeasure.org",
              "code": "mg/dL"
            }
          }
         
        ]

      }

    },{

      "resource" : 
      {
        "resourceType": "Observation",
        "id": "ob-05",
        "text": {
          "status": "generated",
          "div": "<div xmlns=\"http://www.w3.org/1999/xhtml\"><p><b>Generated Narrative with Details</b></p><p><b>id</b>: example</p><p><b>status</b>: final</p><p><b>category</b>: Vital Signs <span>(Details : {http://terminology.hl7.org/CodeSystem/observation-category code 'vital-signs' = 'Vital Signs', given as 'Vital Signs'})</span></p><p><b>code</b>: Body Weight <span>(Details : {LOINC code '29463-7' = 'Body weight', given as 'Body Weight'}; {LOINC code '3141-9' = 'Body weight Measured', given as 'Body weight Measured'}; {SNOMED CT code '27113001' = 'Body weight', given as 'Body weight'}; {http://acme.org/devices/clinical-codes code 'body-weight' = 'body-weight', given as 'Body Weight'})</span></p><p><b>subject</b>: <a>Patient/example</a></p><p><b>encounter</b>: <a>Encounter/example</a></p><p><b>effective</b>: 28/03/2016</p><p><b>value</b>: 185 lbs<span> (Details: UCUM code [lb_av] = 'lb_av')</span></p></div>"
        },
        "status": "final",
        "category": [
          {
            "coding": [
              {
                "system": "http://terminology.hl7.org/CodeSystem/observation-category",
                "code": "vital-signs",
                "display": "Vital Signs"
              }
            ]
          }
        ],
        "code": {
          "coding": [
            {
              "system": "http://loinc.org",
              "code": "29463-7",
              "display": "Body Weight"
            },
            {
              "system": "http://loinc.org",
              "code": "3141-9",
              "display": "Body weight Measured"
            },
            {
              "system": "http://snomed.info/sct",
              "code": "27113001",
              "display": "Body weight"
            },
            {
              "system": "http://acme.org/devices/clinical-codes",
              "code": "body-weight",
              "display": "Body Weight"
            }
          ]
        },
        "subject": {
          "reference": "Patient/mosaico-1"
        },
        "encounter": {
          "reference": "Encounter/example"
        },
        "effectiveDateTime": "2022-01-31",
        "valueQuantity": {
          "value": 100,
          "unit": "kg",
          "system": "http://unitsofmeasure.org",
          "code": "[kg]"
        }
      }

    },{

      "resource" : 
      {
        "resourceType": "Observation",
        "id": "ob-sv-01",
        "status": "final",
        "category": [
          {
            "coding": [
              {
                "system": "http://terminology.hl7.org/CodeSystem/observation-category",
                "code": "vital-signs ",
                "display": "Vital signs"
              }
            ]
          }
        ],
        "code": {
          "coding": [
            {
              "system": "http://loinc.org",
              "code": "8867-4",
              "display": "Heart rate"
            }
          ]
        },
        "subject": {
          "reference": "Patient/mosaico-1"
        },
        "effectiveDateTime": "2022-01-31",
        "valueQuantity": {
          "value": 95,
          "unit": "beats/min",
          "system": "http://unitsofmeasure.org",
          "code": "{Beats}/min"
        }
      }

    },{

      "resource" : 
      {
        "resourceType": "Observation",
        "id": "ob-sv-02",
        "status": "final",
        "category": [
          {
            "coding": [
              {
                "system": "http://terminology.hl7.org/CodeSystem/observation-category",
                "code": "vital-signs ",
                "display": "Vital signs"
              }
            ]
          }
        ],
        "code": {
          "coding": [
            {
              "system": "http://loinc.org",
              "code": "9279-1",
              "display": "Respiratory rate"
            }
          ]
        },
        "subject": {
          "reference": "Patient/mosaico-1"
        },
        "effectiveDateTime": "2022-01-31",
        "valueQuantity": {
          "value": 22,
          "unit": "Breaths/min",
          "system": "http://unitsofmeasure.org",
          "code": " {Breaths}/min"
        }
      }

    },{

      "resource" : 
      {
        "resourceType": "Observation",
        "id": "ob-sv-03",
        "status": "final",
        "category": [
          {
            "coding": [
              {
                "system": "http://terminology.hl7.org/CodeSystem/observation-category",
                "code": "vital-signs ",
                "display": "Vital signs"
              }
            ]
          }
        ],
        "code": {
          "coding": [
            {
              "system": "http://loinc.org",
              "code": "8462-4",
              "display": "Diastolic blood pressure"
            }
          ]
        },
        "subject": {
          "reference": "Patient/mosaico-1"
        },
        "effectiveDateTime": "2022-01-31",
        "valueQuantity": {
          "value": 115,
          "unit": "mmHg",
          "system": "http://unitsofmeasure.org",
          "code": "mm[Hg]"
        }
      }

    },{

      "resource" : 
      {
        "resourceType": "Observation",
        "id": "ob-sv-04",
        "status": "final",
        "category": [
          {
            "coding": [
              {
                "system": "http://terminology.hl7.org/CodeSystem/observation-category",
                "code": "vital-signs ",
                "display": "Vital signs"
              }
            ]
          }
        ],
        "code": {
          "coding": [
            {
              "system": "http://loinc.org",
              "code": "8480-6",
              "display": "Systolic blood pressure"
            }
          ]
        },
        "subject": {
          "reference": "Patient/mosaico-1"
        },
        "effectiveDateTime": "2022-01-31",
        "valueQuantity": {
          "value": 170,
          "unit": "mmHg",
          "system": "http://unitsofmeasure.org",
          "code": "mm[Hg]"
        }
      }

    },{

      "resource" : 
      {
        "resourceType": "Observation",
        "id": "ob-sv-05",
        "status": "final",
        "category": [
          {
            "coding": [
              {
                "system": "http://terminology.hl7.org/CodeSystem/observation-category",
                "code": "vital-signs ",
                "display": "Vital signs"
              }
            ]
          }
        ],
        "code": {
          "coding": [
            {
              "system": "http://loinc.org",
              "code": "59408-5",
              "display": "Oxygen saturation in Arterial blood by Pulse oximetry"
            }
          ]
        },
        "subject": {
          "reference": "Patient/mosaico-1"
        },
        "effectiveDateTime": "2022-01-31",
        "valueQuantity": {
          "value": 98,
          "unit": "%",
          "system": "http://unitsofmeasure.org",
          "code": "%"
        }
      }

    },{

      "resource" : 
       {
              "resourceType": "Patient",
              "text": {
                "status": "generated",
                "div": "<div xmlns='http://www.w3.org/1999/xhtml'><a name='mm'/></div>"
              },
              "id": "mosaico-1",
              "name": [
                {
                  "use": "official",
                  "given": [
                    "Juan"
                  ],
                  "family": "Pérez"
                }
              ],
              "birthDate": "1964",
              "gender" :"male"
            
      }
    },{

      "resource" : 
      {
          "resourceType": "Practitioner",
          "text": {
            "status": "generated",
            "div": "<div xmlns='http://www.w3.org/1999/xhtml'>doctor<a name='mm'/></div>"
          },
          "id": "prac-01",
          "qualification": [
            {
              "code": {
                "coding": [
                  {
                    "code": "MD",
                    "system": "http://terminology.hl7.org/CodeSystem/v2-0360|2.7"
                  }
                ]
              }
            }
          ],
          "name": [
            {
              "given": [
                "Dennis"
              ],
              "family": "Morán"
            }
          ]
        
      }

    },{

      "resource" : 
      {
        "resourceType": "Media",
        "id": "media-01",
        "status": "completed",
        "type": {
          "coding": [
            {
              "system": "http://terminology.hl7.org/CodeSystem/media-type",
              "code": "image",
              "display": "Image"
            }
          ]
        },
        "subject": {
           "reference": "Patient/mosaico-1"
        },
        "createdDateTime": "2017-12-17",
        "issued": "2017-12-17T14:56:18Z",
        "content": {
          "id": "a1",
          "contentType": "image/png",
          "data": "",
          "creation": "2009-09-03"
        }
      }


    },{

      "resource":

      {
        "resourceType": "Observation",
        "id": "ob-06",
        "status": "final",
        "category": [
          {
            "coding": [
              {
                "system": "http://terminology.hl7.org/CodeSystem/observation-category",
                "code": "social-history",
                "display": "Social History"
              }
            ]
          }
        ],
        "code": {
          "coding": [
            {
              "system": "http://loinc.org",
              "code": "11331-6",
              "display": "History of Alcohol use"
            }
          ]
        },
        "subject": {
          "reference": "Patient/mosaico-1"
        },
         "valueRange": {
          "low": {
            "value": 5,
            "unit": "per week",
            "system": "http://unitsofmeasure.org",
            "code": "/w"
          },
          "hight": {
            "value": 6,
            "unit": "per week",
            "system": "http://unitsofmeasure.org",
            "code": "/w"
          }
        }
      }

    },

    {
      "resource" :
       {
        "resourceType": "Condition",
        "text": {
          "status": "generated",
          "div": "<div xmlns='http://www.w3.org/1999/xhtml'><a name='mm'/></div>"
        },
        "id": "cond-",
        "subject": {
          "reference": "Patient/mosaico-1"
        },
        "onSetAge": {
          "value": 58,
          "unit": "years",
          "system": "http://unitsofmeasure.org",
          "code": "a"
        },
        "recordedDate" : "2022-01-12"
      }

    },

    {
       "resource" : 
       {
         "resourceType": "Observation",
         "id": "ob-07",
         "status": "final",
         "category": [
           {
             "coding": [
               {
                 "system": "http://terminology.hl7.org/CodeSystem/observation-category",
                 "code": "survey",
                 "display": "Survey"
               }
             ]
           }
         ],
         "code": {
           "coding": [
             {
               "system": "http://loinc.org",
               "code": "72514-3",
               "display": "Pain severity - 0-10 verbal numeric rating [Score] - Reported"
             }
           ]
         },
         "subject": {
           "reference": "Patient/mosaico-1"
         },
          "valueInteger": 10
       }


    },


    {

      "resource" : 
      {
        "resourceType": "DiagnosticReport",
        "text": {
          "status": "generated",
          "div": "<div xmlns='http://www.w3.org/1999/xhtml'><a name='mm'/></div>"
        },
        "id": "cf-1626211230196",
        "subject": {
           "reference": "Patient/mosaico-1"
        },
        "performer": [{
           "reference": "Practitioner/prac-01"
        }],
        "result": [
          {
            "reference": "Observation/ob-01"
          },{
            "reference": "Observation/ob-02"
          },{
            "reference": "Observation/ob-03"
          },{
            "reference": "Observation/ob-04"
          },{
            "reference": "Observation/ob-05"
          },{
            "reference": "Observation/ob-06"
          },{
            "reference": "Observation/ob-07"
          },{
            "reference": "Observation/ob-sv-01"
          },{
            "reference": "Observation/ob-sv-02"
          },{
            "reference": "Observation/ob-sv-03"
          },{
            "reference": "Observation/ob-sv-04"
          },{
            "reference": "Observation/ob-sv-05"
          }
        ],

        "media" : [
          {
            "comment" : "Electrocardiograma",
            "link" : {
                 "reference": "Media/media-01"
            }

          }
        ],

        "imagingStudy":[
            
            {
              "reference": "imagingStudy/is-01"
            }

        ]

             
      }

    }



  ]



}